time,seconds_elapsed,z,y,x
1751389806703201800,0.033201904296875,-0.8986340163320302,-0.18892390448749063,-0.19922581053227184
1751389806713247700,0.043247802734375,-0.8039951731514186,-0.2032125420808792,-0.10721066691875457
1751389806723293000,0.05329296875,-0.42407589166462417,-0.1942810476064682,0.18097937522381544
1751389806733339000,0.0633388671875,-0.1984850021023303,-0.16870178519189358,0.33518180268108844
1751389806743383800,0.0733837890625,-0.014993497927114366,-0.2833089921027422,0.5018725403115153
1751389806753430000,0.083429931640625,0.10052081389129161,-0.4008510834217071,0.7176222001433372
1751389806763475000,0.093474853515625,0.10538644716627896,-0.43080549218058584,0.8170297920957207
1751389806773521000,0.10352099609375,0.039103345376253124,-0.3390367245435715,0.8508844231635332
1751389806783566000,0.113566162109375,-0.297523906872794,-0.1445937643736601,0.7124307689800858
1751389806793612000,0.123612060546875,-0.977250529994443,0.12266659472584723,0.598081336222589
1751389806803656700,0.13365673828125,-1.3576508729964494,0.3083884883016348,0.5669751270800829
1751389806813703000,0.143702880859375,-1.4681266791909933,0.26098142496049404,0.24632892249077556
1751389806823748900,0.153748779296875,-1.1143173329293727,0.02327449260354042,0.1713692508354783
1751389806833793800,0.163793701171875,-0.821190126645565,-0.21937866398394107,0.16823855159431694
1751389806843840000,0.173840087890625,-0.5275478835117071,-0.5097305603355169,0.1666281937882304
1751389806853885000,0.183885009765625,-0.2895597961258143,-0.6637625996619463,0.23517039961665867
1751389806863931000,0.193930908203125,-0.26639826237745584,-0.7105109068334102,0.33409956040233374
1751389806873975000,0.20397509765625,-0.2276257563907653,-0.6305068112701178,0.29465573102533815
1751389806884021000,0.21402099609375,-0.3006400661319494,-0.38076048155128955,0.3129273007750511
1751389806894066200,0.224066162109375,-0.2583604288071394,-0.19141689034700393,0.5628749982848763
1751389806904112000,0.234112060546875,-0.1643306574355811,-0.07980477359890938,1.0864306703552602
1751389806914156800,0.24415673828125,0.02194295173883438,-0.29920097323954103,1.2104705992609262
1751389806924203000,0.254203125,0.16532091058194637,-0.49356385391056534,1.1897788166269658
1751389806934248000,0.264248046875,0.3435001336932182,-0.4858756374955177,0.592172988961637
1751389806944294000,0.2742939453125,0.35639300607927143,-0.3331529272019863,-0.3199354259714484
1751389806954340000,0.284340087890625,0.345835956229642,-0.6461719979137182,0.864187849111855
1751389806964385000,0.294385009765625,0.12784721223413945,-0.9758043497741222,0.6471122013732791
1751389806974431000,0.304430908203125,0.12522212442755698,-0.9521177692383527,-0.4001237920604646
1751389806984476200,0.31447607421875,-0.024574542351439594,-0.7376134332925081,-0.2698722951635718
1751389806994522000,0.324522216796875,0.14127141501791773,-0.6691799485355615,0.19612316834181545
1751389807004566800,0.33456689453125,0.25967794114649295,-0.706033469158411,0.6409257678233087
1751389807014613000,0.344613037109375,0.2862947299152612,-1.0849158818781375,0.2051635300181806
1751389807024658000,0.354657958984375,0.13768069704957306,-1.6639894430309534,-0.9342181015409529
1751389807034704000,0.364703857421875,-0.129540060691908,-1.6884014152318239,-1.4998701633237301
1751389807044749000,0.3747490234375,0.11584222859852016,-2.154555868691206,-1.7081033100455998
1751389807054795000,0.384794921875,0.4964326873451471,-2.8688538928478953,-1.814643238095939
1751389807064840200,0.394840087890625,-0.016401611159369348,-1.9126427168160676,-1.6087918719440697
1751389807074886100,0.40488623046875,-0.5571212205311283,-0.762574856069684,-1.6415709827348588
1751389807084932000,0.41493212890625,-0.70085051356256,0.4287076431185007,-1.4029897517614065
1751389807094977000,0.42497705078125,-0.41627424147035924,1.2600152591526508,-1.3896174983605742
1751389807105023000,0.43502294921875,-0.03498016449902207,1.4214280563801527,-1.519362360909581
1751389807115068000,0.44506787109375,-0.10280684246923774,2.0057962168097494,-1.0929841836519538
1751389807125113900,0.45511376953125,-0.20327742401063442,3.1316444130569696,-0.13527823901772498
1751389807135159000,0.465158935546875,-0.7876900081038475,4.091902818652987,1.0056870084710419
1751389807145205000,0.475205078125,-1.3849299250662326,4.225246874737739,1.7393702627077698
1751389807155250200,0.485250244140625,-1.45395845310688,3.1745021425306796,1.8652965898819267
1751389807165296000,0.495296142578125,-1.6067881309062242,1.8869091406226157,1.6307773476503789
1751389807175340800,0.5053408203125,-1.559381652086973,0.660197016134858,1.2868272782325745
1751389807185387000,0.515386962890625,-1.53172909052968,-0.1278922204196453,1.1365554682224988
1751389807195433000,0.525432861328125,-1.3874948071181774,-0.6346873118251561,1.203181465166062
1751389807205478000,0.535477783203125,-0.8270143027544021,-1.0798071605622768,1.2965434933438897
1751389807215523800,0.54552392578125,-0.16690785097982733,-1.4289964458078146,1.3653294448003173
1751389807225569000,0.555569091796875,0.46371758170127864,-2.0521248372644183,1.0545635598428547
1751389807235615000,0.565614990234375,0.8477133919119835,-2.834499787825346,0.2723990371622145
1751389807245660200,0.57566015625,0.38065000691413875,-3.415169093737006,-0.3964959569521248
1751389807255706000,0.5857060546875,-0.2857880955673754,-3.4731606794565915,-0.6309665377363562
1751389807265751000,0.5957509765625,-0.6600176409799605,-3.078757457000017,-0.7809770664617419
1751389807275797000,0.605796875,-0.8803053095676004,-2.696086173391342,-0.9644336454540491
1751389807285842000,0.615842041015625,-0.8865490262627601,-2.3167355586379763,-0.7667348983585834
1751389807295888000,0.625887939453125,-0.8441350950337946,-1.8870307211756705,-0.5909042842000722
1751389807305933000,0.63593310546875,-0.6983433530472218,-1.4358762684494255,-0.41334991498887536
1751389807315979000,0.64597900390625,-0.5126093306422234,-0.9955945073932408,-0.10085282232463359
1751389807326025000,0.65602490234375,-0.2732302272893488,-0.44834757861196994,0.6279331613898277
1751389807336070100,0.666070068359375,-0.014933365237712859,0.007619827353954315,1.2963330654636025
1751389807346116000,0.6761162109375,0.275660450110957,0.40823651749789713,1.9276818805158138
1751389807356161000,0.6861611328125,0.6178489897489547,0.7505114933103323,2.3822478952512145
1751389807366207200,0.696207275390625,0.9134580759763717,1.0279647451221943,2.5879431940585373
1751389807376252000,0.706251953125,0.9549778348445892,1.1610884364545344,2.7887404916912315
1751389807386297900,0.7162978515625,0.7832089902322739,1.0761696808427572,2.7947812331601978
1751389807396343000,0.726343017578125,0.5081926832437514,0.7201753917574882,2.668323721718788
1751389807406389000,0.736388916015625,0.4391420164365321,0.17007950328588484,2.420203239636123
1751389807416434200,0.74643408203125,0.3478550409670919,-0.34649113220274447,2.297154659855366
1751389807426480000,0.756480224609375,-0.07213358138389885,-0.6252443606972694,2.2875036189347506
1751389807436525000,0.766525146484375,-0.7519920872569084,-0.6721954969644546,2.0656997736304996
1751389807446571000,0.776571044921875,-1.3828722618840634,-0.7809323505371809,1.8376067650541663
1751389807456617200,0.7866171875,-1.599572500438988,-1.0628045878350734,1.8925021383240819
1751389807466662000,0.796661865234375,-1.4615946470737455,-1.353660342055559,1.728248564712703
1751389807476707800,0.806707763671875,-1.3580818117596207,-1.4498545249193906,1.5006094373837113
1751389807486753000,0.8167529296875,-1.3274478963039815,-1.160596853545308,1.5536740880951285
1751389807496799000,0.826799072265625,-1.3659129437766968,-0.7190279752880334,1.6049460101708768
1751389807506844200,0.83684423828125,-1.5843009892880915,-0.3471171551465988,1.6630317039147018
1751389807516890000,0.84689013671875,-1.7894436226487158,-0.15421557919979095,1.6048989561587572
1751389807526935000,0.85693505859375,-1.8829346840336918,-0.061250295254588125,1.6114663518503307
1751389807536981000,0.86698095703125,-1.8598833326615392,-0.0035410336077213284,1.7024720261603592
1751389807547026000,0.87702587890625,-1.737119999562949,0.015021043521165846,1.7065020123288035
1751389807557072000,0.88707177734375,-1.5115150084100664,0.057442135143280025,1.6609434994637966
1751389807567117800,0.897117919921875,-1.2539279020629823,0.08054244022369385,1.507225348392129
1751389807577163000,0.9071630859375,-1.0598550903797148,0.10630641155540943,1.34272978271842
1751389807587209000,0.917208984375,-0.8785786319054663,0.10819091012775897,1.1645859231814741
1751389807597254100,0.927254150390625,-0.6842766876414418,0.04829962826669216,1.0002253820642828
1751389807607300000,0.937300048828125,-0.5592085847318172,0.01326981593966484,0.9257359582692384
1751389807617345000,0.947344970703125,-0.5080689107336104,0.012277882292866707,0.9962947646170854
1751389807627391000,0.957390869140625,-0.43708091918826103,0.042108956933021545,1.1984405542492866
1751389807637436000,0.967435791015625,-0.3703554073929786,0.13630290589034558,1.5679668173417447
1751389807647481900,0.97748193359375,-0.30464579464197156,0.3123351801007986,2.047819249024987
1751389807657527000,0.987527099609375,-0.2782451328419149,0.4997416657626629,2.4594299191311
1751389807667573000,0.997572998046875,-0.3153844846688211,0.710710813319683,2.739412104898691
1751389807677618000,1.007617919921875,-0.41769700428247447,0.9302589886516333,2.9813617893919346
1751389807687664000,1.0176640625,-0.5643430250108241,1.0340881964385509,3.1291940972954033
1751389807697710000,1.0277099609375,-0.708304921221733,1.0102432104706764,3.2748695194259283
1751389807707755000,1.037755126953125,-0.9040661243833601,1.0085030888050794,3.549505375729501
1751389807717801200,1.04780126953125,-1.0916774849675595,1.04878599935472,3.8413296827211973
1751389807727846000,1.057845947265625,-1.2365009664438664,1.0534463923811912,3.941492476955056
1751389807737891800,1.067891845703125,-1.2610055853642523,0.9467658868163824,3.770494982041418
1751389807747937000,1.07793701171875,-1.2515911296784876,0.6539174974739551,3.5641160848841067
1751389807757983000,1.08798291015625,-1.167934795217961,0.2121352687269449,3.4912653682067987
1751389807768028000,1.09802783203125,-1.2900102921828627,-0.3436977020919323,3.5837305936753747
1751389807778074000,1.10807421875,-2.4004428926333783,-1.3058236551254987,3.820815302480757
1751389807788119000,1.118119140625,-8.266586796367168,-4.101454490852356,3.4805689098864794
1751389807798165000,1.1281650390625,-8.742371247959136,-4.507263488942384,1.9866066554322837
1751389807808211200,1.138211181640625,-3.1135330023050307,-2.3998849664896724,1.2924763900354503
1751389807818256000,1.148255859375,-1.1555715727292,-1.1322884584277868,1.3934879100531339
1751389807828301800,1.1583017578125,-1.0655391273654997,-0.4391173934519291,1.6496017289772629
1751389807838347000,1.168346923828125,-1.009835214191675,0.17207973719239233,1.7509797442197799
1751389807848393000,1.17839306640625,-0.9855671074409037,0.8762351375192403,1.6189952860504389
1751389807858438000,1.18843798828125,-1.0999147135674954,1.4784288774967194,1.351672383108735
1751389807868484000,1.198484130859375,-0.9866296221058816,1.8736667972117662,1.0797402328059076
1751389807878529500,1.208529541015625,-0.4809679186444729,2.251140512177348,0.9545178161174058
1751389807888575500,1.218575439453125,-0.13267244043350218,2.6296996842920777,0.9027122255563735
1751389807898620700,1.22862060546875,-0.009054317136481404,2.835363126656413,0.9745575645834207
1751389807908666600,1.23866650390625,-0.6261234085541219,2.7541584231317042,1.0960334882199763
1751389807918712600,1.248712646484375,-1.5349170729160309,2.504660515215993,0.8879881191551685
1751389807928757500,1.258757568359375,-1.4896259788155555,2.4571371320188042,0.39786943726241586
1751389807938803500,1.268803466796875,-0.7776444149076939,2.551885792249441,0.044138416934013366
1751389807948848400,1.278848388671875,-0.34493279684484,2.6200457207620143,0.01353343531191349
1751389807958894600,1.28889453125,-0.2057318314254284,2.5893641667723655,0.1348112060278654
1751389807968939500,1.298939453125,-0.07119125903248787,2.445632572185993,0.10780337211489677
1751389807978985500,1.3089853515625,0.176237441393733,2.252019048577547,-0.1600122827798128
1751389807989030700,1.31903076171875,0.23269294011984018,1.9311235454022884,-0.4832563949078321
1751389807999076600,1.32907666015625,0.18390107135679573,1.6033873825520275,-0.8285100942701101
1751389808009122600,1.33912255859375,0.24204876095354555,1.1138070453196762,-1.2297843715399503
1751389808019167500,1.34916748046875,0.5120124607276171,0.6988070250362157,-1.6550217081993817
1751389808029213400,1.35921337890625,0.6916267581433058,0.32202713755369183,-2.072166923817992
1751389808039258400,1.36925830078125,0.7265565441619605,-0.051852936834096905,-2.5581045206338167
1751389808049304600,1.3793046875,0.5875175643712282,-0.3737333593934774,-3.0765467952132224
1751389808059349500,1.389349609375,0.21017368633039293,-0.7608850032866,-3.680568919661641
1751389808069395500,1.3993955078125,0.036921398227289313,-1.058088665229082,-4.267537033456564
1751389808079440600,1.409440673828125,0.19635610031485556,-1.3438029649078844,-4.7427170894145965
1751389808089486600,1.419486572265625,0.6151840083234011,-1.5547083995789288,-5.053154911461472
1751389808099531500,1.429531494140625,1.2246476662386208,-1.7391653877854347,-5.276453963759542
1751389808109577500,1.439577392578125,1.715933419149369,-1.9259183779746294,-5.465761899128556
1751389808119623400,1.44962353515625,1.952670775821805,-2.080889743977785,-5.623894359511136
1751389808129668400,1.45966845703125,2.0097491922192274,-2.2958792330920694,-5.721460999771952
1751389808139714600,1.469714599609375,1.984392778775096,-2.5494915905892848,-5.785971173605322
1751389808149759500,1.479759521484375,1.8305292278833687,-2.7725562496095892,-5.698050898090004
1751389808159805400,1.489805419921875,1.601604006266594,-2.9021014979332684,-5.387507277581095
1751389808169850600,1.4998505859375,1.3691143701665103,-2.9214859973609446,-4.841677814382314
1751389808179896600,1.509896484375,0.9426882621139288,-2.660255566075444,-3.851398949053883
1751389808189941500,1.51994140625,0.3555598431907594,-2.063636411359906,-2.3308856645435094
1751389808199987500,1.529987548828125,-0.36892566685080525,-1.4707032516807317,-0.4278706077724695
1751389808210033400,1.540033447265625,-0.8731862713426352,-1.0674889462590218,1.6764146248400211
1751389808220078600,1.55007861328125,-0.833739811617136,-0.8098539091169834,3.267989989045262
1751389808230124500,1.56012451171875,-0.6342278776198625,-0.3614741818010807,4.461633372145891
1751389808240169500,1.57016943359375,-1.0265883422024547,0.21362404597997664,5.963685701814294
1751389808250215400,1.58021533203125,-1.925913117277622,0.6315040056139231,7.743527967903018
1751389808260260600,1.590260498046875,-3.1193320439726113,0.7895914578109979,9.31995427829325
1751389808270306600,1.600306640625,-3.9963521943897007,0.9526216271072625,10.328008454287051
1751389808280351500,1.6103515625,-4.733447156766057,1.0397603968560696,10.762114157056807
1751389808290397400,1.6203974609375,-4.815639117762446,0.6635451575189828,10.142523292076588
1751389808300443400,1.630443359375,-4.104215187737346,0.24778350521326065,8.409728608366846
1751389808310488600,1.640488525390625,-2.677031344309449,1.3618220212012528,5.051677824646235
1751389808320534500,1.650534423828125,-1.1096546748805791,3.699526718109846,2.3834002801567316
1751389808330579500,1.660579345703125,0.2780062095195055,5.397935148093104,1.6911808168172835
1751389808340625400,1.67062548828125,1.3982535170197485,6.445991079607605,1.4624299288541078
1751389808350670600,1.680670654296875,2.304296348303556,6.711501964691281,1.1842436865925787
1751389808360716500,1.690716552734375,3.156142309975624,5.643399270448088,0.6931640507131814
1751389808370761500,1.700761474609375,3.6041228088408706,3.698210959336161,-0.06507189936935902
1751389808380807400,1.710807373046875,3.6045430800795555,1.822155805683136,-1.506094883057475
1751389808390852400,1.720852294921875,3.338256534448266,0.25470950508415696,-2.991410012936592
1751389808400898600,1.730898681640625,2.7150515706241127,-0.862684751072526,-4.346547441807389
1751389808410944500,1.740944580078125,0.0012438625812530516,-1.6393734726905822,-6.642849284225702
1751389808420989400,1.750989501953125,-1.5369780970990656,-1.7743290556252003,-7.8039125862389795
1751389808431035400,1.761035400390625,-0.8626314865153283,-1.26059510486722,-7.044798099756241
1751389808441080600,1.77108056640625,0.015832432969287037,-0.5654957021772861,-6.110558517035842
1751389808451126500,1.78112646484375,0.9639876552522182,0.023039514803886413,-5.638949305301904
1751389808461171700,1.791171630859375,1.7772189318478107,0.6512871489703654,-5.341515341734886
1751389808471217400,1.801217529296875,2.060187732210755,1.3148024958729743,-4.981722244888544
1751389808481263400,1.811263427734375,2.0463380705565215,1.8808336201012132,-4.500586495396495
1751389808491308500,1.82130859375,2.220319841977954,2.3457553168952465,-3.8805993245750665
1751389808501354500,1.8313544921875,2.423860300838947,2.5981688199967143,-3.1003233921200035
1751389808511399400,1.8413994140625,2.4384113887608048,2.579651751053333,-2.338504907375574
1751389808521445600,1.851445556640625,2.2515432477593422,2.3007582373052835,-1.7200351553797721
1751389808531490600,1.861490478515625,2.0115105028033256,1.9324463184386491,-1.2176818458139895
1751389808541536500,1.87153662109375,1.5718810681760311,1.5151111332058906,-0.5361123713046312
1751389808551581700,1.881581787109375,0.8534954824447631,1.066208843320608,0.5507365244626998
1751389808561627600,1.891627685546875,0.6002314999938011,0.5708592750370503,0.8942322742417455
1751389808571673300,1.90167333984375,0.6482470506221055,0.18011632865369318,0.6949579483926296
1751389808581718500,1.911718505859375,0.6449626221239566,-0.14278116199374197,0.45588294255286455
1751389808591764500,1.921764404296875,0.5043711156615988,-0.49353345877230165,0.37824119220674035
1751389808601809400,1.931809326171875,0.28603812480568885,-0.7957341983497143,0.5072252995163202
1751389808611855600,1.941855712890625,0.13752864829301834,-1.1379472148418426,0.7862269498139619
1751389808621900500,1.951900634765625,-0.005867430728673934,-1.4531091428011655,1.2308122532829642
1751389808631946500,1.961946533203125,-0.1791056903064251,-1.7157862657636402,1.6304147979483008
1751389808641992400,1.971992431640625,-0.3219815448462963,-1.9425164615541695,1.8254554317504166
1751389808652037600,1.98203759765625,-0.47080666317939757,-2.1186592104017734,1.858892421928048
1751389808662083600,1.99208349609375,-0.5487282533802091,-2.2165713030993937,1.7887746373459696
1751389808672128500,2.00212841796875,-0.6596084025919438,-2.2982740192741153,1.7235016624465584
1751389808682174500,2.012174560546875,-0.7508591377042233,-2.3844927515685557,1.6720473695412277
1751389808692219400,2.022219482421875,-0.750479198475927,-2.4301193612337113,1.5158315564349292
1751389808702265600,2.032265625,-0.6984194870233535,-2.4493337647914886,1.3621701039865612
1751389808712310500,2.042310546875,-0.7046539974987507,-2.5127199030309915,1.2596347354024648
1751389808722356500,2.0523564453125,-0.6634886050261557,-2.564015205982327,1.1994696050360798
1751389808732402700,2.062402587890625,-0.5013093534708023,-2.5568162343889473,1.1635004660323263
1751389808742447600,2.072447509765625,0.18392098163366316,-2.4680524937868116,1.0288348059549928
1751389808752493600,2.08249365234375,0.4573391327105462,-2.1532792728841303,1.1639581466719509
1751389808762538500,2.09253857421875,-0.5549933051243424,-1.7224708580940962,1.4669152575746178
1751389808772584400,2.10258447265625,-1.2653367464363574,-1.3797604134738444,1.6371742090806365
1751389808782629400,2.11262939453125,-1.5105788966037332,-1.1657879924476147,1.8108377083331346
1751389808792675600,2.122675537109375,-1.8226818753838538,-1.0069254642248153,2.091458484265208
1751389808802721500,2.132721435546875,-1.8190590087115763,-0.8575257608741521,2.2548542720034717
1751389808812766500,2.142766357421875,-1.6223066025555133,-0.6054834291726351,2.3540450063347813
1751389808822812700,2.152812744140625,-1.4950504880823194,-0.2444032151252031,2.6061577729240057
1751389808832857600,2.162857666015625,-1.440049170219898,0.15167057089209557,2.987963379614055
1751389808842903600,2.172903564453125,-1.5260186039283872,0.4523486309468746,3.569694177277386
1751389808852948500,2.182948486328125,-1.630705305327475,0.6575368570148944,4.304231856386363
1751389808862994400,2.192994384765625,-1.5949132764562963,0.7720616463392973,4.998255446538328
1751389808873040400,2.203040283203125,-1.4707994055315852,0.7720686606019734,5.62413050635457
1751389808883084500,2.21308447265625,-1.415384684562683,0.6667243720769882,6.1701832569152115
1751389808893130500,2.223130615234375,-1.419170925103128,0.611246230483055,6.647845192816853
1751389808903175700,2.23317578125,-1.463756355152279,0.7984709298372268,7.189789923536777
1751389808913221600,2.2432216796875,-1.537495983493328,1.059470474976301,7.7670035360366105
1751389808923266600,2.2532666015625,-1.54555858617872,1.1488467945188283,8.14431533843875
1751389808933312800,2.263312744140625,-1.5784662917852401,0.9482949960798025,8.12527278431654
1751389808943358700,2.273358642578125,-1.6296612031020223,0.6168968035906552,7.879359749150276
1751389808953403600,2.283403564453125,-1.5519509175643325,0.21089257518947124,7.671886042493582
1751389808963449600,2.29344970703125,-1.3186509879946708,-0.51272740406394,7.241571548700332
1751389808973494500,2.30349462890625,-1.036221701335907,-1.3977274473190306,6.577509673830867
1751389808983540500,2.31354052734375,-0.902726254081726,-2.095406929630041,5.66652295640409
1751389808993585700,2.323585693359375,-0.9818690566405653,-2.4053052379727364,4.758403611107171
1751389809003631600,2.333631591796875,-1.0742369592145085,-2.3144418947428465,3.912372473193705
1751389809013677600,2.343677490234375,-1.4351369943894445,-1.7521785986155272,3.121605541862547
1751389809023722800,2.35372265625,-1.843971477780491,-0.6039519818216562,2.4505440173640847
1751389809033768700,2.363768798828125,-1.8707564627230167,0.6025812779903411,1.920305214267969
1751389809043813600,2.373813720703125,-1.6440426335453986,1.713390310537815,1.3619994235947728
1751389809053859600,2.383859619140625,-1.9472130949378013,2.9556173995435238,0.87598408536762
1751389809063904500,2.393904541015625,-3.597527648359537,4.648763378953934,0.6195481948822736
1751389809073950500,2.403950439453125,-5.989536182385683,6.504918484872579,0.6173641288414597
1751389809083996400,2.413996337890625,-5.464466014099121,7.562635394179821,0.8426707215696573
1751389809094041600,2.42404150390625,-4.586368005317449,8.471013390412926,1.0048165092468262
1751389809104087600,2.434087646484375,-3.2255846795141694,8.943464313668013,1.0694155304074286
1751389809114132700,2.4441328125,-1.284758070743084,8.622177180826663,0.788026692712307
1751389809124178700,2.4541787109375,0.25710957022951914,7.680874235591292,0.20412498075067995
1751389809134223600,2.4642236328125,1.7225263876736163,6.1378714713752265,-0.33691900173723693
1751389809144269800,2.474269775390625,3.047704731610417,4.739215218773484,-0.9966472313165664
1751389809154315800,2.484315673828125,3.84836528044641,3.3638919109642504,-1.8968547805756328
1751389809164360400,2.4943603515625,3.4660552313655613,1.9892939948201178,-2.603821731191873
1751389809174406700,2.50440673828125,3.4538469071775673,0.9139484898418188,-2.9812106904834508
1751389809184451600,2.51445166015625,4.1404596365511415,-0.12813128987252712,-3.4412294176667926
1751389809194497500,2.52449755859375,3.910592896300554,-1.1394593729704618,-3.98344770463109
1751389809204542700,2.534542724609375,3.4997967574477196,-2.032373842611909,-4.413601454904676
1751389809214588700,2.544588623046875,3.273354146426916,-2.6666630950301884,-4.901447515690326
1751389809224634600,2.554634521484375,2.8710265607118606,-3.1761843965291976,-5.448956894800067
1751389809234679800,2.5646796875,2.441887540438771,-3.550251517921686,-5.945286706292629
1751389809244725800,2.574725830078125,2.127651495152712,-3.676417060679197,-6.454544972941279
1751389809254770400,2.5847705078125,1.9681280188031494,-3.5061961030960083,-6.875007350283861
1751389809264816600,2.594816650390625,1.941872318431735,-3.1946815917283296,-7.126028522244096
1751389809274861600,2.604861572265625,2.0227152029067277,-2.88128550439775,-7.214724458307027
1751389809284907500,2.614907470703125,2.287699579898268,-2.666065129137039,-7.227699090692401
1751389809294953500,2.624953369140625,2.471912091824412,-2.6106547920823098,-7.281341249030828
1751389809304998700,2.63499853515625,2.448631754001975,-2.6664532516717907,-7.290275666114687
1751389809315044600,2.645044677734375,2.387358662393689,-2.7845775267928836,-7.271213238248229
1751389809325089800,2.65508984375,2.08338346048966,-2.880119383227825,-7.20722153533101
1751389809335135700,2.6651357421875,1.4890513937979937,-2.7707079913944006,-6.913308731627464
1751389809345180700,2.6751806640625,0.5493997229009866,-2.2483500046759843,-6.412391592344641
1751389809355226600,2.6852265625,-1.4856440695725381,-0.8763590561598539,-5.757915291944146
1751389809365272600,2.6952724609375,-4.909221656823158,1.65899762609303,-3.822914028325677
1751389809375317500,2.7053173828125,-5.464235712474585,2.3367326370060444,1.4923878447443246
1751389809385363500,2.715363525390625,-2.349592410840094,1.9594991605371235,4.703375259107351
1751389809395408600,2.72540869140625,-1.76633294230476,3.4469051252156495,7.316359370920062
1751389809405454600,2.73545458984375,-2.1824055602557957,5.602685567265748,11.44888061568737
1751389809415499800,2.745499755859375,-0.46528775362744923,6.975443993023037,13.395139770901203
1751389809425545700,2.755545654296875,0.32330300270840523,7.4052172195464365,14.417728083682059
1751389809435591700,2.765591796875,0.5868488713294268,6.251081086447835,14.24588566237688
1751389809445636900,2.775636962890625,0.4181447480499744,2.877885340565443,10.416130974376202
1751389809455682600,2.7856826171875,-0.24656543466039,-0.047727381336688995,4.161751430904865
1751389809465727500,2.7957275390625,-0.32600831614434717,1.0197791005790233,0.009018003714084625
1751389809475773700,2.805773681640625,0.3030833676308393,3.7146085519075394,-0.9383820893526077
1751389809485818600,2.815818603515625,0.17103227396607398,6.249557822403311,-1.3307383161514996
1751389809495864600,2.825864501953125,-0.47680681690964843,8.14280084222257,-1.5726391930669545
1751389809505910500,2.83591064453125,-0.5108644962688907,8.217228598958254,-1.4712112012028693
1751389809515955700,2.845955810546875,0.006392879374884069,6.066275138673186,-1.3391910871982573
1751389809526001700,2.856001708984375,0.5680506473571062,3.725398241469264,-2.276248649948835
1751389809536046800,2.866046875,-0.041661176632903515,1.3786603432774542,-2.913693151527643
1751389809546092800,2.8760927734375,-1.4440794486492872,-1.1125772112637757,-3.68058937792778
1751389809556138500,2.886138427734375,-1.151027645689249,-2.217057040789723,-4.769457212302089
1751389809566183700,2.89618359375,0.274933341412805,-2.2183552639067172,-4.93409715488255
1751389809576229600,2.906229736328125,1.1234504874557256,-2.220207613775134,-4.682236024966835
1751389809586274600,2.916274658203125,1.5396592990070581,-2.256931370538473,-4.6255403242766855
1751389809596320500,2.926320556640625,1.8924696973592041,-2.3808260457545516,-4.583678035581111
1751389809606365700,2.93636572265625,2.1586060208648443,-2.4842636238753792,-4.379097127756476
1751389809616411600,2.94641162109375,2.3971710313558576,-2.265952296862006,-4.083459399956465
1751389809626457600,2.95645751953125,2.443672085767984,-1.5365695162981747,-3.624447219467163
1751389809636502800,2.966502685546875,2.5202076284378765,-0.36604163584709165,-2.997543985646963
1751389809646548700,2.976548828125,2.6314678630083796,0.8439011401474475,-2.4162153390437364
1751389809656593700,2.98659375,2.8818899000316858,1.9756459932178259,-1.8636229575812815
1751389809666639600,2.9966396484375,3.099624888461828,2.8626527001202104,-1.25544722058475
1751389809676684500,3.0066845703125,3.1432687998771667,3.2724206649690863,-0.6232151929572224
1751389809686730500,3.01673046875,2.7460020046830174,3.102334731942415,-0.14162000925987958
1751389809696776700,3.026776611328125,2.1448208027489484,2.4462381368637085,0.10880115098059177
1751389809706821600,3.036821533203125,1.3670786265552044,1.562625164052844,0.4397913471907377
1751389809716867600,3.04686767578125,0.7458926744032651,0.4446037159085274,0.5608379394993186
1751389809726912800,3.056912841796875,0.6473866344004869,-0.543160536250472,0.2747983533889055
1751389809736958700,3.066958740234375,0.7894155167222022,-1.2506179007321596,0.012335457699000834
1751389809747004700,3.077004638671875,0.8069331262994557,-1.8432482780724764,-0.03617752105742693
1751389809757049600,3.087049560546875,0.6626923400819301,-2.3564596662610766,0.008326806579530239
1751389809767095600,3.097095458984375,0.44791795502305026,-2.7628134387522936,0.11588292593508959
1751389809777140700,3.107140625,0.23704583809971808,-3.015576485943794,0.3370312299400568
1751389809787186700,3.117186767578125,0.06963529829476028,-3.2221587967187166,0.5109662396103143
1751389809797231600,3.127231689453125,-0.06878770502209663,-3.292895882242918,0.6096966629534959
1751389809807277600,3.137277587890625,-0.2115688670158386,-3.2709564376354217,0.674833736513555
1751389809817323800,3.14732373046875,-0.35033319458365436,-3.2024528102517125,0.7844426967456937
1751389809827368700,3.15736865234375,-0.3717127402860671,-3.105035223072767,0.9949547481849789
1751389809837414700,3.16741455078125,-0.3626772009152919,-2.8894775786817073,1.2918944984942673
1751389809847459600,3.17745947265625,-0.5654148920260369,-2.6046546748846766,1.5834470028072594
1751389809857505500,3.187505615234375,-0.6885996654070914,-2.367421205258369,1.6799802083671092
1751389809867551500,3.197551513671875,-0.3076725951172411,-2.117142960619926,1.6620388934850692
1751389809877597400,3.207597412109375,-0.018649901542812583,-1.8159142809450626,1.6144398147031664
1751389809887643400,3.217643310546875,-0.9264334390141069,-1.2567366758733987,1.7822130868732928
1751389809897688300,3.227688232421875,-1.582302070555836,-0.4507113851338625,2.196383962856233
1751389809907734300,3.237734375,-1.8120748489126561,0.25474574544131756,2.984545972386002
1751389809917780500,3.247780517578125,-1.903589057266712,0.7837620210051536,3.8188691368490457
1751389809927825200,3.2578251953125,-1.938053783056885,1.2050672789126633,4.407528272470832
1751389809937871000,3.26787109375,-1.9532338165320455,1.6150310585945844,4.805991291712224
1751389809947916300,3.277916259765625,-1.933106828173995,1.9075573763757943,5.132155382940173
1751389809957962200,3.287962158203125,-1.9598826068967579,2.1099644472926853,5.495071580243111
1751389809968007400,3.29800732421875,-2.1591838207527996,1.999819480487704,6.086147129356861
1751389809978053400,3.308053466796875,-2.3700360639318823,1.336685241857171,6.663634298101067
1751389809988099300,3.318099365234375,-2.2451135069727894,0.36923429440855976,6.862507349672913
1751389809998144500,3.32814453125,-1.9364707516491413,-0.5220557889014482,6.81693217793405
1751389810008190500,3.3381904296875,-1.6572015364564954,-1.3768009791463613,6.611546967989206
1751389810018235100,3.348235107421875,-1.4926023642778397,-2.007037156781554,6.379639661821723
1751389810028281000,3.358281005859375,-1.5986577236816286,-2.0901111613094807,6.3116048209935425
1751389810038327300,3.368327392578125,-1.7744494671344757,-1.916439186489582,6.498543689143657
1751389810048372200,3.378372314453125,-1.757841885074228,-1.9216326634794472,6.764647863945364
1751389810058418200,3.388418212890625,-1.456880039642006,-2.06407714086473,7.031491458937525
1751389810068463400,3.39846337890625,-0.8460218586284667,-2.409242577421665,7.423681096997857
1751389810078509300,3.40850927734375,-0.2088191299162805,-2.8017957880973814,7.703145104110241
1751389810088555300,3.41855517578125,-0.14533325762934982,-2.855136333140731,7.298612701827287
1751389810098600400,3.428600341796875,-0.626602789568901,-2.464436056855321,6.337310924658179
1751389810108646400,3.438646484375,-1.0787306173719464,-1.6636001514524221,5.620559077608585
1751389810118691300,3.44869140625,-1.103400802117586,-0.6008136837959289,4.957042561662197
1751389810128737300,3.4587373046875,-0.8586872058689594,0.7288742465198039,4.290993312367797
1751389810138782200,3.4687822265625,-0.6132815357029437,2.172571417853236,3.7009319087326524
1751389810148828200,3.478828125,-0.3295183700919151,3.676767773813009,3.2102658220902085
1751389810158874400,3.488874267578125,-0.10522095440626143,5.377700169315934,2.9190844891771675
1751389810168919300,3.498919189453125,0.18057985451221464,6.8919339351654045,2.729438407894969
1751389810178965200,3.50896533203125,0.20794483129978178,8.55492969098389,2.640529121342301
1751389810189010400,3.519010498046875,0.38606969387531276,10.324725779354571,2.576336342895031
1751389810199056400,3.529056396484375,0.3613046704530716,12.12994447876215,2.2376316267848013
1751389810209102300,3.539102294921875,-1.3138321895360945,13.156249181717634,1.1136644219785927
1751389810219147300,3.549147216796875,-3.2619840266287325,12.571971622180937,-0.7519248672395944
1751389810229193200,3.559193115234375,-3.5834359946429726,10.362766463935374,-2.491746673107147
1751389810239238100,3.569238037109375,-2.9165538016557693,7.832100569847226,-3.7217356273084876
1751389810249284400,3.579284423828125,-1.7996458677113054,5.585885823634267,-4.3825300248146055
1751389810259330300,3.589330322265625,-0.5822153663098811,3.6928584923923014,-4.595100177827478
1751389810269375200,3.599375244140625,0.08675006269216537,2.015655347523093,-4.850829673609137
1751389810279421400,3.60942138671875,0.15257654328849166,0.3713251292079687,-4.900256844601035
1751389810289466400,3.61946630859375,0.7021621806830167,-1.0152566547185182,-4.940070384073257
1751389810299512300,3.62951220703125,1.5106500621438026,-2.046771201276779,-5.0763265282124275
1751389810309557200,3.63955712890625,2.332431140419841,-2.774486925411224,-5.149678764671087
1751389810319603200,3.649603271484375,2.9577415520906447,-3.2973224665135143,-5.373858691456913
1751389810329649200,3.659649169921875,3.3142636644423007,-3.8779824200749395,-5.627628869864345
1751389810339694300,3.6696943359375,3.575294773763418,-4.4141275246053935,-5.894153315904736
1751389810349740300,3.679740234375,3.820496445789933,-4.89875579238832,-6.187541218951345
1751389810359785200,3.68978515625,3.9562247666627166,-5.247111549419165,-6.467592670562863
1751389810369831400,3.69983154296875,4.018572209504247,-5.441655047354102,-6.749965258598327
1751389810379877400,3.70987744140625,3.8947073449045417,-5.329696309125423,-7.087065462121367
1751389810389922300,3.71992236328125,3.6872073347628116,-4.863726564583182,-7.356216165012121
1751389810399968500,3.729968505859375,3.6599902420133352,-4.240851855626702,-7.545394921043515
1751389810410013200,3.74001318359375,3.73767729280591,-3.6775399272292852,-7.655127799916267
1751389810420059100,3.75005908203125,3.6297128849104046,-3.209565272605419,-7.661435960149764
1751389810430105000,3.76010498046875,3.2117776879578828,-2.6792238859176636,-7.400071088829636
1751389810440150300,3.770150390625,2.5166709787443278,-2.068606600987911,-6.901954978442192
1751389810450196200,3.7801962890625,1.4096839887030421,-1.3028934468924998,-6.2256473699837915
1751389810460241400,3.790241455078125,-0.32320670272707935,-0.09803308872878551,-5.315069233357906
1751389810470287400,3.800287353515625,-2.683926949042082,2.0515707105129954,-3.2428900345802307
1751389810480333300,3.810333251953125,-5.024855284172296,3.3161732974559066,1.0338181473255157
1751389810490378500,3.82037841796875,-3.082739220112562,3.246428730100393,4.340326959857344
1751389810500424400,3.830424560546875,-3.0096716458141803,4.813662849253416,7.161738133528829
1751389810510469000,3.84046923828125,-4.110151007527112,6.934590589109063,11.639672067612409
1751389810520515300,3.850515380859375,-3.7875276576459407,8.034235838085413,13.696682923352718
1751389810530561300,3.860561279296875,-3.0220044731646776,8.644124808740616,14.839037433242797
1751389810540606200,3.870606201171875,-1.5465005432039498,7.352140293875336,14.717535206121205
1751389810550652200,3.880652099609375,-0.49468949693962927,3.8770290648728607,11.484123778504133
1751389810560697300,3.890697265625,-0.3412736167501658,1.881216481938958,6.305466756629944
1751389810570743300,3.900743408203125,-0.8390542846381663,4.194985007464886,2.2340438314259052
1751389810580788500,3.91078857421875,-0.7279068627923727,6.996798915740847,1.0794459260344504
1751389810590834400,3.92083447265625,0.25683252512011673,8.049579537689686,1.5875065073311327
1751389810600880400,3.93088037109375,1.5638900694221258,6.9347489945411676,2.2225544691622257
1751389810610925300,3.94092529296875,2.7767940333098173,5.272963783556222,1.2624760963082313
1751389810620971300,3.95097119140625,3.339838250681758,3.8773330162554975,-0.9551222117513417
1751389810631016200,3.96101611328125,3.924762875950336,2.1160943283498286,-2.7274375894665717
1751389810641062100,3.971062255859375,4.082667957317829,0.4443073633104562,-3.9091491272330283
1751389810651108400,3.9811083984375,2.739865109363198,-1.532427009665966,-5.367761543625593
1751389810661153300,3.9911533203125,0.9329051192462444,-3.4146734191745516,-7.203449615576863
1751389810671199200,4.00119921875,1.9177992227964102,-3.6556998513430354,-7.136077622571587
1751389810681244400,4.011244384765625,2.626346282210946,-3.528369356459379,-6.616629385820031
1751389810691290400,4.021290283203125,2.71981250141561,-3.5936288873553273,-6.479111843442917
1751389810701336300,4.03133642578125,2.6728385687947274,-3.616399522089958,-6.405226523020863
1751389810711381200,4.04138134765625,2.5569500899016857,-3.387973628297448,-6.244664205142855
1751389810721427200,4.05142724609375,2.401706336697936,-2.755954658898711,-5.819145128932595
1751389810731472100,4.06147216796875,2.260315167757869,-1.7648901961505412,-5.310038837975263
1751389810741518300,4.071518310546875,2.1616192312061786,-0.5848842932581901,-4.83435667771399
1751389810751564300,4.081564208984375,2.328238364905119,0.7343360190570354,-4.3320922154754395
1751389810761609200,4.091609130859375,2.506483638989925,2.045363088044524,-3.760314656549692
1751389810771655400,4.101655517578125,2.5295862821578976,3.1595874819934364,-3.128534172081947
1751389810781700400,4.111700439453125,2.1813608735084533,3.847695418360829,-2.464581018283963
1751389810791746300,4.121746337890625,1.6509434989750384,4.014974477273226,-1.7667448841065168
1751389810801792300,4.131792236328125,1.0638555581927298,3.8207472056806084,-1.1072440335422753
1751389810811837200,4.141837158203125,0.33409050031304355,3.3830233124136924,-0.3508516654998064
1751389810821883100,4.151883056640625,-1.1136018781363963,2.870855880320072,1.0228104310989379
1751389810831928300,4.16192822265625,-1.4935270779073238,1.945074329343438,1.592987276829779
1751389810841974300,4.171974365234375,-0.9074339933812617,0.8444880001246928,1.1110974941000342
1751389810852020200,4.182020263671875,-0.42530159753467883,-0.08509118956923484,0.64725950088948
1751389810862065400,4.1920654296875,-0.3353659636089578,-0.9194763133525848,0.5232116809383034
1751389810872111400,4.202111328125,-0.4246715194702148,-1.622587173062563,0.5455594140857458
1751389810882156300,4.21215625,-0.4876537530839443,-2.2042776387155056,0.5845043540298939
1751389810892202500,4.222202392578125,-0.5467161098401994,-2.6175802074313164,0.646077305367589
1751389810902248400,4.23224853515625,-0.6517161880373954,-2.891669535768032,0.7654381365463138
1751389810912293400,4.24229345703125,-0.7446084798116237,-3.080227529552579,0.7694824435010552
1751389810922339300,4.25233935546875,-0.8276151181917637,-3.1138352001219984,0.8843293043866753
1751389810932384500,4.262384521484375,-0.9429728512089699,-3.0226205592364073,1.0695862107992171
1751389810942430500,4.272430419921875,-1.0050327823460101,-2.8956524679243563,1.148700079524517
1751389810952476400,4.282476318359375,-1.0068368360932916,-2.8354683405965564,1.0744058860406278
1751389810962521300,4.292521240234375,-1.3369852477170525,-2.866573672956228,0.5946928628280759
1751389810972567300,4.3025673828125,-1.5861201675392687,-2.6920196546047923,0.5831199139341712
1751389810982613200,4.31261328125,-1.294057667877525,-2.242512969085574,1.5069552992790936
1751389810992658400,4.322658447265625,-1.2941603975996374,-1.6961469147920607,2.453625909027457
1751389811002704400,4.332704345703125,-1.4537445180952548,-1.2787521083265543,2.919648552800715
1751389811012749300,4.342749267578125,-1.4351041150331496,-0.884462283116579,3.1537042691737414
1751389811022795500,4.35279541015625,-1.2669149555385113,-0.43149230540096756,3.5150188764989374
1751389811032841500,4.362841552734375,-1.0528180313497781,0.09789572608470916,4.051559410087764
1751389811042886400,4.372886474609375,-0.6483741841331124,0.6500152293384075,4.721597144496441
1751389811052932600,4.3829326171875,0.10538783540576696,1.1560142019301651,5.546227766984701
1751389811062977300,4.392977294921875,0.6093053255483508,1.539931686207652,6.5412441822290415
1751389811073023200,4.403023193359375,0.4256342270225286,1.749858631235361,7.461109787160158
1751389811083069400,4.4130693359375,-0.05904986260086298,1.720277731963992,8.105152371829748
1751389811093114400,4.4231142578125,-0.49275633691996334,1.3974866243004798,8.391825871929527
1751389811103160300,4.433160400390625,-0.8023278975263237,0.7712836477041244,8.408299452346563
1751389811113205500,4.44320556640625,-1.0333785868644714,-0.0939507878512144,8.090664412271977
1751389811123251500,4.45325146484375,-1.1331167259454726,-0.8427759355098009,7.823876931381225
1751389811133297400,4.46329736328125,-1.3474832608558236,-1.3189046704947949,7.715285623759031
1751389811143342600,4.473342529296875,-1.5951964773118494,-1.7735767759531735,7.6104259038805955
1751389811153388500,4.483388427734375,-1.803410188680887,-2.2794559215575454,7.345425306406617
1751389811163433200,4.49343310546875,-1.7004466578125952,-2.9167805961489677,6.925089185792207
1751389811173479400,4.5034794921875,-1.199811696472019,-3.6392315316230057,6.615711686453223
1751389811183525400,4.513525390625,-0.49079848085045813,-4.385831404447555,6.435795848807692
1751389811193570300,4.5235703125,-0.40753684479594227,-4.799128712466358,6.1124845166623585
1751389811203616300,4.5336162109375,-1.0158289016485214,-4.596878293415903,5.268254875212907
1751389811213662500,4.543662353515625,-1.7911385899983345,-3.854690976336598,4.205685849699377
1751389811223707400,4.553707275390625,-3.433343632853031,-2.1937246805191037,3.0830288507089016
1751389811233753300,4.56375341796875,-6.032669221669435,0.12986322823166846,1.996281661750376
1751389811243798500,4.573798583984375,-6.794333977156877,1.8843109408229588,1.2540937601491808
1751389811253844500,4.583844482421875,-5.6132291731119155,3.025149785453081,1.0157491144105792
1751389811263890200,4.59389013671875,-4.107904105383158,4.269693919229507,1.1927297753870487
1751389811273935400,4.603935302734375,-2.8483775065302845,5.844506364682316,1.6183976124182342
1751389811283981300,4.613981201171875,-1.710238568508625,7.587586880084872,2.0084972924619913
1751389811294026500,4.624026611328125,-0.5636345844805241,9.38161373887062,2.5078648642152546
1751389811304072400,4.634072509765625,0.5193816012561321,11.276766976225375,2.879002361896634
1751389811314118400,4.644118408203125,1.4077712869495154,12.963386184215544,2.9021926833480594
1751389811324163300,4.654163330078125,1.837351621249318,13.634185842907428,2.2077292404741047
1751389811334209500,4.66420947265625,1.9280039520770311,12.827420547455548,0.8836649952590465
1751389811344255500,4.67425537109375,1.5745324594676493,10.49574753192663,-0.7276660397738218
1751389811354300400,4.684300537109375,0.42501463381946086,7.926670950901508,-2.346969953382015
1751389811364346400,4.694346435546875,-0.4790700491338968,5.691188026583195,-3.532127247688174
1751389811374391300,4.704391357421875,-1.48997201577425,3.588400339052081,-4.484679901212454
1751389811384437200,4.714437255859375,-2.445472413188219,1.51136376337111,-5.371290886795521
1751389811394483200,4.724483154296875,-2.7710020059049127,-0.23927462006509304,-5.984940086767077
1751389811404528400,4.7345283203125,-2.0255203234553334,-1.3742635696232317,-6.238616741672158
1751389811414574300,4.74457421875,-0.6663456018924713,-2.0901871491551396,-6.391123178866505
1751389811424620300,4.754620361328125,0.6471972493082284,-2.410374796321988,-6.538658841910958
1751389811434665500,4.76466552734375,1.744164803507924,-2.7843115693330764,-6.6708239173442125
1751389811444711400,4.77471142578125,2.6927877163678406,-3.1157085927784443,-6.778488173249364
1751389811454756600,4.784756591796875,3.2944144701123235,-3.4709669688045977,-6.937687386080622
1751389811464802300,4.79480224609375,3.7410885625541206,-3.8586511121392246,-7.092099949157237
1751389811474848300,4.80484814453125,4.068048480334878,-4.2228234469830985,-7.239258011060953
1751389811484893400,4.8148935546875,4.255068597027659,-4.433219763088226,-7.35039900316596
1751389811494939400,4.824939453125,4.36260425811708,-4.427083452290296,-7.478799173107743
1751389811504984300,4.834984375,4.330946552571654,-4.17300698441267,-7.588110027176142
1751389811515030300,4.8450302734375,4.1356104429543015,-3.7769127401292324,-7.568318115991354
1751389811525076500,4.855076416015625,3.9256279683470723,-3.2393203593999145,-7.360830380809307
1751389811535121400,4.865121337890625,3.607323066186905,-2.6042507702589033,-6.846339474204182
1751389811545167400,4.87516748046875,3.097874245402217,-1.8336434143811464,-6.031386780643463
1751389811555213600,4.885213623046875,2.227796023077518,-0.7810732203125953,-4.904830143865943
1751389811565258500,4.895258544921875,0.5206448991902173,0.9092156161010265,-3.3871073668569323
1751389811575304200,4.90530419921875,-3.97757267511785,2.693505509248376,-0.3348094622373581
1751389811585349400,4.915349365234375,-4.842064767873287,2.2410189311355353,3.736878835904598
1751389811595395300,4.925395263671875,-2.8217624713271854,2.7079952223718164,6.112480425009131
1751389811605441300,4.935441162109375,-3.6420886746197936,4.149255521947145,9.666184713733196
1751389811615486500,4.945486572265625,-4.041973543357849,4.920217682611942,12.4553291100502
1751389811625532400,4.955532470703125,-3.461956563875079,5.662508460065722,14.005516232812404
1751389811635578400,4.965578369140625,-2.4179051918268204,5.5126884854763745,14.976251608759164
1751389811645623600,4.97562353515625,-1.6340461401879787,3.9280350294888016,13.538850322699545
1751389811655669500,4.98566943359375,-0.9302368498850613,1.8587667497217655,8.77129105297327
1751389811665715500,4.995715576171875,-0.6567331394165754,2.8470617477566003,2.4971657755464314
1751389811675760400,5.005760498046875,-0.32222295238673687,5.465470807227492,-0.5059112943083047
1751389811685806300,5.015806396484375,-0.269004554152023,7.308482938456535,-1.7085791108638047
1751389811695851300,5.025851318359375,-0.2697457279081456,8.568605165114999,-2.789576942515373
1751389811705897200,5.035897216796875,-0.15385376015007496,8.553242760810255,-3.819414495772123
1751389811715943400,5.045943359375,-0.8062620221048593,6.764389505270123,-5.117829335945844
1751389811725988400,5.05598828125,-1.4316671263217926,4.1143174795567985,-4.979573542422056
1751389811736034300,5.066034423828125,-1.9401438872039316,2.1983803973704577,-4.8664761555522675
1751389811746080500,5.07608056640625,-1.4868600212335585,0.8535597798526287,-5.335338698926567
1751389811756125400,5.08612548828125,0.16764438509345053,0.3938064256072044,-5.297398552110791
1751389811766171400,5.09617138671875,1.606325774091482,0.33327333871126175,-4.823068975502252
1751389811776217300,5.10621728515625,2.098426569712162,-0.019537644162774086,-4.653669855695963
1751389811786262300,5.11626220703125,2.1699726335316893,-0.6370014339864254,-4.715727960202098
1751389811796308200,5.12630810546875,2.127270386880636,-1.3568360494822262,-4.654994966819882
1751389811806353400,5.136353515625,1.8496768498152494,-2.162882383009791,-4.566607073792815
1751389811816399400,5.1463994140625,1.4753086996495723,-2.663291572770476,-4.505249811032414
1751389811826445300,5.1564453125,1.426888075351715,-2.690455474027991,-4.4209021333068605
1751389811836490500,5.166490478515625,1.5607932724505662,-2.2603233510643244,-4.155938360711932
1751389811846536400,5.176536376953125,1.7960721008777618,-1.453906430658698,-3.549462997892499
1751389811856582400,5.18658251953125,2.1522785714089867,-0.6233224527239799,-2.773151585154235
1751389811866627300,5.19662744140625,2.741655499911308,0.1941588825315237,-1.98284642611593
1751389811876673500,5.206673583984375,3.278461114177108,0.8725923971027135,-1.1561775757983326
1751389811886718500,5.216718505859375,3.091903354299068,1.2218565011501312,-0.44221711303293704
1751389811896764400,5.226764404296875,2.232730410739779,1.3834732965171337,0.33450083467960356
1751389811906810600,5.236810546875,1.3855302290469407,1.3595143287807703,1.2590882074356078
1751389811916855300,5.246855224609375,1.0970740102488548,0.9744067579358816,1.7241817536652086
1751389811926901200,5.2569013671875,1.0303764824390411,0.4352981274247169,1.6163818886816501
1751389811936947500,5.266947509765625,0.9039508274406194,-0.1490542509138584,1.4601403566122053
1751389811946992400,5.276992431640625,0.6295733298122882,-0.7457230899900198,1.399213009701669
1751389811957038300,5.287038330078125,0.28800679453015327,-1.2532184386193752,1.25454267296046
1751389811967084300,5.297084228515625,0.04579721699170768,-1.7180793451368808,1.1181091264277696
1751389811977129500,5.30712939453125,-0.24007599957585332,-2.14149355802238,1.0871797351568937
1751389811987175400,5.317175537109375,-0.5430126522123814,-2.5164380467712877,1.0637179032877087
1751389811997221400,5.327221435546875,-0.7259294252395629,-2.8134336189210414,1.0324790076762438
1751389812007266600,5.3372666015625,-0.7783515402637422,-2.985753594610095,1.0554887118637561
1751389812017312500,5.3473125,-0.7147336390949786,-3.012250556391477,1.1529226656556129
1751389812027357400,5.357357421875,-0.6286696589708328,-2.7932056544065476,1.3769009323894976
1751389812037403400,5.3674033203125,-0.4650153664268553,-2.411577742370963,1.8170453308016061
1751389812047449300,5.377449462890625,-0.19277678052335975,-2.02780229691267,2.2615537696421146
1751389812057494500,5.38749462890625,-0.4483832344472408,-1.6386048264056443,2.5580712028861043
1751389812067540500,5.39754052734375,-0.9208185217417776,-1.3903425977647303,2.857802629740536
1751389812077586400,5.40758642578125,-1.2208967162072657,-1.315614396777749,3.0851328372508284
1751389812087631400,5.41763134765625,-1.526775852036476,-1.3770792115658521,2.9656285059481857
1751389812097677600,5.427677490234375,-1.6735273789659142,-1.4020622616529463,2.694327347025275
1751389812107723500,5.4377236328125,-1.795567220095545,-1.2144587921142578,2.682644800277054
1751389812117768400,5.4477685546875,-1.8412977285265921,-0.710904874587059,2.77600492875874
1751389812127814700,5.457814697265625,-1.7959174948379397,-0.10291676911711692,3.4556641857326027
1751389812137859300,5.467859375,-1.7821449900731443,0.3760270232886076,4.586504491178691
1751389812147905300,5.4779052734375,-1.8382900711432097,0.7585784799098968,5.545832045665383
1751389812157951200,5.487951171875,-1.7982897769272326,1.0752350303411484,6.321957872703671
1751389812167996400,5.497996337890625,-1.5817442905426025,1.2530401594430207,7.020985262492299
1751389812178042400,5.50804248046875,-1.2999506714388727,1.2264531812906265,7.635925086796283
1751389812188088300,5.51808837890625,-1.013585798896849,0.9973410587996244,8.105456323212385
1751389812198133500,5.528133544921875,-0.7731880200207233,0.45422728430032727,8.376120937797428
1751389812208179500,5.538179443359375,-0.9696377899684011,-0.5292746342390775,8.132876245057583
1751389812218225400,5.548225341796875,-1.6553060780987143,-1.3960364254921673,7.4057532261192796
1751389812228270600,5.5582705078125,-2.165897931438684,-1.8108564130336045,6.833869284209609
1751389812238316500,5.568316650390625,-2.3117019483849406,-2.1059633949577807,6.597285802924633
1751389812248362500,5.578362548828125,-2.0347055004298684,-2.4760405699312686,6.626840983232856
1751389812258407400,5.588407470703125,-1.2689197194896638,-3.0289293039917946,7.079182015395164
1751389812268453400,5.598453369140625,-1.3799229105591773,-3.7114357670903204,7.8883076102375975
1751389812278499300,5.608499267578125,-3.108571580505371,-3.869696822288632,7.5374255495995275
1751389812288544500,5.61854443359375,-4.242303223478793,-3.208077664396167,6.560892301028966
1751389812298590500,5.628590576171875,-4.581420612043142,-2.0118764135062692,6.005104338395595
1751389812308636400,5.638636474609375,-4.176189121580124,-0.3401484851777553,5.374818476399779
1751389812318681600,5.648681640625,-2.9727684408307073,0.9653519293427467,4.332603379867971
1751389812328727600,5.6587275390625,-1.6048726526737211,2.1048674164146184,3.5270109275877473
1751389812338772500,5.6687724609375,-0.853416060533002,3.2182085977882147,2.8773303370311853
1751389812348818400,5.678818359375,-0.5421382439980283,4.591790614888072,2.5237758423134684
1751389812358864400,5.688864501953125,-0.039198056188691405,6.272025674799084,2.4616169077813623
1751389812368909300,5.698909423828125,0.4403939892590046,8.065232449373603,2.4155346633031964
1751389812378955300,5.708955322265625,0.7324141110837459,9.983092608577012,2.428817630985379
1751389812389001500,5.71900146484375,1.283612407839298,12.004954994046688,2.6528052500694987
1751389812399046400,5.72904638671875,1.227093817281723,13.724310934990644,2.4692367351353166
1751389812409092400,5.73909228515625,0.7029249817490577,14.432246438378094,1.8698335026592015
1751389812419138300,5.74913818359375,0.19347908357381818,13.588099799036979,0.6939665992677211
1751389812429183500,5.75918359375,-0.7532932329833507,11.032350317096709,-1.2746423349201679
1751389812439229400,5.7692294921875,-1.8028081311345099,8.06368931158483,-3.150692227876186
1751389812449275400,5.779275390625,-2.0871417901098726,5.676205561506748,-4.275426909923553
1751389812459320600,5.789320556640625,-2.0170997011125085,3.522384436830878,-5.000592365053296
1751389812469366300,5.7993662109375,-1.544948637586832,1.6320640264600514,-5.43037435940504
1751389812479412200,5.809412109375,-0.5644727888703346,0.0988309611082077,-5.689989756709337
1751389812489457400,5.81945751953125,0.5267401107927784,-1.084099889320135,-5.902219717982411
1751389812499503400,5.82950341796875,1.654580978694558,-1.9692694439232348,-6.041561553177237
1751389812509549300,5.83954931640625,2.7849475291490555,-2.6098171722143886,-6.175977037885785
1751389812519594500,5.849594482421875,3.6128941443175075,-3.2714135337531567,-6.342777957892418
1751389812529640400,5.859640380859375,4.010681163993477,-3.8065865783810615,-6.49602147718966
1751389812539686400,5.869686279296875,4.281491909050941,-4.312644587683677,-6.674713910520077
1751389812549731600,5.879731689453125,4.520203050014376,-4.829416298702359,-6.830888222572207
1751389812559777500,5.889777587890625,4.825224692231417,-5.187740492039919,-7.0399097431927915
1751389812569822200,5.899822265625,4.843553545126318,-5.406637509986758,-7.243474167451262
1751389812579868400,5.909868408203125,4.620238710737228,-5.420384880310297,-7.439749019223451
1751389812589914400,5.919914306640625,4.239636050096154,-5.1989101208299395,-7.678375989034771
1751389812599959300,5.929959228515625,3.918856866776943,-4.770350946271419,-7.917413877734542
1751389812610005500,5.940005615234375,3.7878953219145535,-4.286895229399204,-8.06976892375946
1751389812620051500,5.950051513671875,3.693118020111322,-3.8323528878003357,-8.033796862146257
1751389812630096400,5.960096435546875,3.4403850757971406,-3.3012574678748843,-7.615838576579094
1751389812640142300,5.970142333984375,2.8908143802434205,-2.452586629107594,-6.831086375492811
1751389812650188500,5.9801884765625,1.034132620102167,-0.9129355134069919,-5.948792084065079
1751389812660233500,5.9902333984375,-4.4668321098327635,2.1583424014925954,-4.248063686701655
1751389812670279400,6.000279541015625,-10.472207666385174,4.400791073170304,0.42474516922831534
1751389812680325600,6.01032568359375,-7.103785126253962,2.9846815814644096,3.937445831912756
1751389812690370300,6.020370361328125,-4.067299123272299,3.2584564370244737,4.977900056251883
1751389812700416300,6.030416259765625,-3.136710464274883,4.95028431957364,7.295476741889119
1751389812710462200,6.040462158203125,-1.5063918201774358,6.453609153395891,10.086233834099769
1751389812720507400,6.05050732421875,-0.10813888767957687,6.835416513651609,11.8351420327425
1751389812730553300,6.06055322265625,0.8611023041866719,7.199720365920663,13.613310228139161
1751389812740599300,6.070599365234375,1.5892057124644516,6.047343059188127,13.415614403653144
1751389812750644500,6.08064453125,1.4133803590029477,3.645439154091477,8.826696129330992
1751389812760690400,6.0906904296875,0.659649392189458,3.8750112953096627,3.033454672461748
1751389812770736400,6.100736328125,0.16238080200944094,6.195887607014179,0.7952268333494663
1751389812780781600,6.110781494140625,-1.2221171979129313,8.678836641159654,-0.5650514655411243
1751389812790827500,6.12082763671875,-2.1353134080827236,9.77054349835217,-1.584253643015027
1751389812800873500,6.13087353515625,-0.9550760345220565,8.159315339171886,-1.5076514648497104
1751389812810918400,6.14091845703125,0.009230778815085067,5.474591102272272,-1.4613497324019669
1751389812820964400,6.15096435546875,0.5977578033566474,3.548296292200684,-2.466424015802145
1751389812831010300,6.16101025390625,0.7611766797095537,1.3996136994570494,-3.196861273854971
1751389812841055500,6.171055419921875,-1.195597439777851,-1.4904454785048962,-3.872289761391282
1751389812851101400,6.181101318359375,-2.6655811450123785,-3.615450843062997,-5.190141707962751
1751389812861147400,6.1911474609375,-1.1510831752687691,-3.679962770462036,-5.736770797106623
1751389812871192600,6.201192626953125,0.6908031668007374,-3.385192473146319,-5.281406033208966
1751389812881238300,6.21123828125,1.8398370083242654,-3.2601503814607855,-4.990927880129218
1751389812891284200,6.2212841796875,2.6339175942480564,-3.091749040520191,-4.9652112550705665
1751389812901329200,6.2313291015625,3.092687198153138,-2.760279536360502,-4.761610005933046
1751389812911375000,6.241375,3.0144717395722864,-2.1533593523830175,-4.402608351725339
1751389812921421000,6.251421142578125,2.955999092337489,-1.2734960874944925,-3.8238451716959476
1751389812931466000,6.261466064453125,2.861056955361366,-0.1992395467966795,-3.2902579349547625
1751389812941512200,6.27151220703125,2.8844541975617406,0.9556915360718965,-2.8591256950378416
1751389812951558100,6.28155810546875,3.0157506734669206,2.0421727675706145,-2.3256711447656153
1751389812961603000,6.29160302734375,3.2244787640988823,2.8849223995953794,-1.6394681652367114
1751389812971649300,6.301649169921875,3.1083354336619373,3.1461317880928514,-0.9593418752729892
1751389812981695200,6.3116953125,2.6819261306136846,2.790479444313049,-0.4383981392666697
1751389812991740200,6.321740234375,2.112656901247054,2.1995225531429052,-0.15048954441398382
1751389813001786000,6.3317861328125,1.562285556834936,1.4315700956881046,-0.02424392215758562
1751389813011832300,6.341832275390625,1.2634053399823606,0.5717267055213451,0.05046703543365001
1751389813021877000,6.351876953125,0.990628555548936,-0.28945640881657597,0.16974954067915676
1751389813031923000,6.3619228515625,0.6997264779686927,-1.1573019036531447,0.32414690618664027
1751389813041969200,6.37196923828125,0.5907873798221349,-1.8750754949659107,0.4123737634330988
1751389813052014000,6.38201416015625,0.5436334875244647,-2.4240648835003373,0.5212120315536857
1751389813062060000,6.39206005859375,0.3721399527221918,-2.852677834072709,0.7255810501933098
1751389813072106200,6.402106201171875,0.13343873036457224,-3.176783531466126,0.8484542734071612
1751389813082151200,6.412151123046875,-0.0705880324423313,-3.3700200384557246,0.8494917997613549
1751389813092197000,6.422197021484375,-0.28726213190900163,-3.4015608396232127,0.8768190748870373
1751389813102243000,6.4322431640625,-0.3578898935735225,-3.360295347777009,0.9009007922202348
1751389813112288300,6.442288330078125,-0.2745148602724075,-3.0593963384479284,1.1333934970602393
1751389813122334200,6.452334228515625,-0.1957142222147435,-2.7161791133493183,1.4767428241059184
1751389813132380200,6.462380126953125,-0.19070494268536567,-2.482432901316881,1.8283932387679813
1751389813142425000,6.472425048828125,-0.392213092001155,-2.241713343140483,2.138326326163113
1751389813152471000,6.482470947265625,-0.5097266148127615,-2.011604610827565,2.2960154266923665
1751389813162517000,6.49251708984375,-0.5887164187669753,-1.7489900317072868,2.530982704952359
1751389813172562200,6.502562255859375,-1.0301358055509626,-1.3629460567951202,2.9679005425333975
1751389813182608100,6.512608154296875,-1.3621253880620001,-0.9988684144973754,3.281946033683419
1751389813192654000,6.522654052734375,-1.4635957577630876,-0.6850719296723604,3.4893951904207468
1751389813202699300,6.53269921875,-1.4122401029266416,-0.22838848439157008,3.654184186083078
1751389813212745200,6.5427451171875,-1.3393807645514606,0.40564883909225463,3.9328251863747834
1751389813222791200,6.552791259765625,-1.411248315410316,0.828418908855319,4.584852047796547
1751389813232836400,6.56283642578125,-1.4952990560159087,1.0140963787674904,5.424729046994448
1751389813242882300,6.57288232421875,-1.4352540448978544,1.147733864840865,6.158654731684923
1751389813252928000,6.582927978515625,-1.3146899754092096,1.3429635914742946,6.820007932117581
1751389813262973200,6.59297314453125,-1.1507038205623625,1.4723855056792496,7.566755104458331
1751389813273019100,6.60301904296875,-0.9409221292242407,1.374311500418186,8.23176507383287
1751389813283065000,6.613065185546875,-0.8255871925607323,1.2048656188607214,8.807408076015115
1751389813293110000,6.623110107421875,-0.8765279829859733,1.0683347494333981,9.345912895414232
1751389813303156200,6.63315625,-1.1652212984755634,0.8523147482275962,9.800169990330934
1751389813313202200,6.6432021484375,-1.526708193627745,0.44535307297110555,9.854557414078712
1751389813323247000,6.6532470703125,-1.8336930987417697,-0.20150982981622217,9.74970938463807
1751389813333293300,6.663293212890625,-2.4714789611041543,-0.9998509957939385,9.58441711562872
1751389813343339300,6.67333935546875,-2.5482535732269285,-1.9267922381997107,8.241435403975844
1751389813353384000,6.683384033203125,-2.1232256415344772,-2.747913391262293,7.000236488974094
1751389813363430100,6.69343017578125,-1.195629003959894,-3.6248470324397086,6.01984714949727
1751389813373476000,6.70347607421875,-0.2043709183357656,-4.102455192327499,5.059768776643276
1751389813383521000,6.71352099609375,-0.2652922738969326,-3.343204512244463,3.53925899926424
1751389813393567000,6.72356689453125,-0.8341980767786502,-1.58706402426064,2.152086702098697
1751389813403613200,6.73361328125,-1.4582242938578127,0.0410737686663866,1.2855433759018777
1751389813413658000,6.743658203125,-2.641832020634413,1.712911002588272,0.7202478724718093
1751389813423704000,6.7537041015625,-4.804658874064684,3.7791385994851585,0.3226709884151816
1751389813433750300,6.763750244140625,-6.208285316294432,5.789862335824966,0.34343116011023517
1751389813443795200,6.773795166015625,-5.845290208536386,7.319490070161223,0.899615428584814
1751389813453841200,6.783841064453125,-4.487691357988119,8.780983594948053,1.4731722721427678
1751389813463887000,6.79388720703125,-2.1509552138507364,10.419356366163491,1.9103057983011007
1751389813473932000,6.80393212890625,-0.15735566732380538,11.926257304906844,2.0381237844407556
1751389813483978000,6.81397802734375,0.41864743687510486,12.838434108901023,1.442524620422721
1751389813494024000,6.82402392578125,1.3240858725249767,12.906682884740828,0.44389819798767566
1751389813504070100,6.834070068359375,1.598675551599264,11.308664335745572,-1.017040031003952
1751389813514115000,6.844114990234375,1.2587754882246256,8.913448530110717,-2.442109658756852
1751389813524161000,6.8541611328125,0.5386269844740629,6.49603901284635,-3.548431316757202
1751389813534207200,6.864207275390625,0.08991175072663463,4.490013663455843,-4.206646803686023
1751389813544252200,6.874252197265625,0.30045360364913937,2.7035633774042127,-4.915349199792742
1751389813554298000,6.884298095703125,0.2540536715239286,0.950373555919528,-5.53270777567625
1751389813564344000,6.894343994140625,-0.016689871782530098,-0.7385919229358434,-5.990263327616453
1751389813574389200,6.90438916015625,-0.10043722726106644,-2.189451240983605,-6.394635570901632
1751389813584435200,6.914435302734375,0.38565117620229716,-3.2568162686020132,-6.7720765526413915
1751389813594481200,6.924481201171875,1.035900798818469,-4.002971904790401,-7.018861694467067
1751389813604526000,6.934526123046875,1.62136143065989,-4.583901322942972,-7.1914435359627005
1751389813614572000,6.944572021484375,2.1086048493772744,-5.110953604957461,-7.318630822983383
1751389813624618000,6.954617919921875,2.499922965300083,-5.507931061816215,-7.388729026082157
1751389813634663200,6.9646630859375,3.124421476066112,-5.7341626604348415,-7.398887432003021
1751389813644709000,6.974709228515625,3.7893309076756236,-5.8191650026768444,-7.442818343666195
1751389813654755000,6.984755126953125,4.196843202552199,-5.685543298694491,-7.529405909273028
1751389813664800300,6.99480029296875,4.558256594076752,-5.240141710406541,-7.627271240219473
1751389813674846200,7.00484619140625,4.749534368214011,-4.605149278154969,-7.601755690690875
1751389813684892200,7.01489208984375,4.818143794059753,-4.027302043926715,-7.48288907276988
1751389813694937300,7.024937255859375,4.847486500661075,-3.311496537816524,-7.121707736435532
1751389813704983300,7.0349833984375,4.5302106492877,-2.4311948815107343,-6.482197534498572
1751389813715029200,7.045029296875,3.6114471603795884,-1.5566747312158344,-5.785563761848211
1751389813725074200,7.05507421875,1.661787549072504,-0.33198271437883375,-5.081550984862447
1751389813735120100,7.0651201171875,-3.503818268048763,2.3552596428215504,-3.7705437896192073
1751389813745166000,7.075166015625,-12.654883714145422,5.204684612578153,0.720207540461421
1751389813755211000,7.0852109375,-10.094034863239527,4.021619322115183,4.795118892303109
1751389813765257200,7.09525732421875,-6.433135105165839,4.49259432759881,6.121763217139244
1751389813775303200,7.10530322265625,-5.864112397906184,6.403415089684724,9.137661774644256
1751389813785348000,7.11534814453125,-3.695779348275065,7.464637961286306,11.637587662553786
1751389813795394300,7.125394287109375,-1.381228732460737,7.305588386058807,12.564057195794582
1751389813805440300,7.135440185546875,0.33830212665870785,6.875201411551236,13.553603655195236
1751389813815486200,7.145486328125,1.1681051833488048,4.45145216987133,12.316859381514787
1751389813825531100,7.15553125,1.1987725626826287,0.5750958896934986,7.350328860539197
1751389813835577300,7.165577392578125,1.1261878034651278,-1.4575509246408938,1.4962211392968892
1751389813845623000,7.175623046875,0.9316553383808582,-0.5224842434465885,-1.917255763569474
1751389813855668000,7.18566796875,1.4917407790124415,2.1138544404685495,-2.529841133701801
1751389813865714200,7.195714111328125,1.777777734774351,4.815276129668951,-2.3662013080745936
1751389813875760000,7.205760009765625,0.6762696145355701,7.567417952281236,-3.0549212388604876
1751389813885808400,7.215808349609375,-0.17515434059845283,9.631476388445495,-3.2983944796591995
1751389813895854600,7.2258544921875,0.2610942376852035,8.24384772581458,-1.9745067600548267
1751389813905900500,7.235900634765625,0.10255670363306998,5.271677835398912,-2.471259765395522
1751389813915945500,7.245945556640625,-0.923797099161148,3.024036271253228,-3.270090760716796
1751389813925991400,7.255991455078125,-2.724917131078243,0.559524226552248,-3.6428754410833117
1751389813936037600,7.26603759765625,-2.3284078762531277,-0.476904395532608,-4.275809771761298
1751389813946082600,7.27608251953125,-0.17396423576474188,-0.2878513117074966,-4.370326376801729
1751389813956128500,7.28612841796875,0.95143270958364,-0.6615495997875929,-4.238820057538152
1751389813966174700,7.2961748046875,1.3986007230222224,-1.2496908490151166,-4.265539137637615
1751389813976219400,7.306219482421875,1.7819319318443536,-1.822262188667059,-4.294279494431614
1751389813986265300,7.316265380859375,2.1010002195924518,-2.3152473659068344,-4.291064624038339
1751389813996311600,7.3263115234375,2.2975749310940503,-2.565827808362245,-4.2857548271924255
1751389814006357500,7.336357421875,2.382230067333579,-2.35690098028779,-4.207112083110213
1751389814016402400,7.34640234375,2.5488714128643273,-1.5030308193117379,-3.869817818319797
1751389814026448400,7.356448486328125,2.719596812838316,-0.29687165350914,-3.198981334748864
1751389814036494600,7.36649462890625,2.9147195719659327,0.9676783264636993,-2.473326342536509
1751389814046539500,7.37653955078125,3.169256643092632,2.0323644902616738,-1.6694895017519593
1751389814056585500,7.38658544921875,3.0981933943539857,2.627511234337091,-0.8416264732137322
1751389814066631700,7.396631591796875,2.6875246812731026,2.7474884438484906,-0.17822598486244678
1751389814076676600,7.406676513671875,2.2433698781758546,2.4370588051080704,0.23959873745292423
1751389814086722600,7.41672265625,1.8727444216698408,1.7654653656899928,0.5359568884819745
1751389814096768500,7.4267685546875,1.4131401205062866,0.796195386120677,0.5531596599563956
1751389814106813400,7.4368134765625,1.0959487325459718,-0.27449966270327564,0.2836532754957676
1751389814116859400,7.446859375,1.0158861847937106,-1.070951653933525,0.04482552241533994
1751389814126905300,7.4569052734375,0.9575842179507017,-1.6498820072233675,-0.018389935432374476
1751389814136950500,7.466950439453125,0.7573971611708402,-2.124471111550927,0.0025783260554075238
1751389814146996500,7.47699658203125,0.4994669404745102,-2.5382196704685684,0.07107523143738508
1751389814157042400,7.48704248046875,0.2738894401167519,-2.8534043947815895,0.13857231212705373
1751389814167087600,7.497087646484375,0.07117606146335602,-3.0285832670331,0.18180998082906008
1751389814177133600,7.507133544921875,-0.06842183085177093,-3.101219464176893,0.223774560855329
1751389814187179500,7.517179443359375,-0.062197878303006285,-2.939877978619933,0.3696238782480359
1751389814197225500,7.5272255859375,0.09625555766224861,-2.505758831846714,0.7244087915435433
1751389814207270700,7.537270751953125,0.20216259463652966,-2.0107845266163347,1.3021978658437727
1751389814217316600,7.547316650390625,0.009940233125537634,-1.4763754520982504,1.9347651167750357
1751389814227362300,7.5573623046875,-0.349890126991272,-0.89742230245471,2.634783563427627
1751389814237407500,7.567407470703125,-0.5760558207668364,-0.456409889036417,3.2010227774485944
1751389814247453400,7.577453369140625,-0.9842365164242685,-0.19699439821839332,3.637574412065744
1751389814257499400,7.58749951171875,-1.3052549153268336,-0.10114683683514594,3.833886673238873
1751389814267544600,7.597544677734375,-1.4580419230282307,-0.20661679756641388,3.692355219045281
1751389814277590500,7.607590576171875,-1.5932299995444714,-0.46430677976608276,3.4263238172188397
1751389814287636500,7.617636474609375,-1.7238535446241496,-0.6201414846003055,3.3765853883206844
1751389814297681700,7.627681640625,-1.7498294051408767,-0.4927729957938194,3.7962335266709326
1751389814307727600,7.6377275390625,-1.6136241144061088,-0.012759528329968451,4.911127198183536
1751389814317773600,7.647773681640625,-1.5769925659708677,0.2156038216203451,6.031935062175989
1751389814327819500,7.657819580078125,-1.7493574037149549,0.3569786239475012,6.787313284739851
1751389814337864400,7.667864501953125,-1.8675357471108436,0.5122592020303011,7.522474064183235
1751389814347910400,7.677910400390625,-1.8328747680962085,0.49557753182053565,8.22363145173788
1751389814357956400,7.687956298828125,-1.619082379812002,0.2859522000879049,8.874244062447547
1751389814368001500,7.69800146484375,-1.3054140514113008,-0.1950789199858904,9.434737426292896
1751389814378047500,7.708047607421875,-1.3103823413431643,-0.8353618598610162,9.365883085775375
1751389814388093400,7.718093505859375,-1.6842836046494543,-1.2256804433524608,8.742591028189658
1751389814398138600,7.728138671875,-2.046663795379549,-1.5041653762996197,8.314852522364259
1751389814408184600,7.7381845703125,-2.1210009512223302,-2.007763132968545,8.155007412844895
1751389814418230500,7.74823046875,-2.697179229325056,-2.906197242814302,8.58792361356914
1751389814428275700,7.758275634765625,-3.170519210374355,-3.784231538709998,8.58504951943755
1751389814438321700,7.76832177734375,-2.831643813872337,-4.323603788593411,7.548250310474634
1751389814448367600,7.77836767578125,-2.526622756177187,-4.647590243521332,6.802690302091836
1751389814458412300,7.788412353515625,-2.1109772775970397,-4.499035174301266,5.974997369423508
1751389814468458500,7.79845849609375,-1.7306722847282885,-2.9563544816464185,4.796265724250674
1751389814478504400,7.80850439453125,-1.2956243326723575,-1.1460709000647067,3.749359547293186
1751389814488550400,7.81855029296875,-0.8839829751670361,0.34190497345626353,3.1907872146382927
1751389814498595600,7.828595703125,-0.629124417001009,1.9399907424688339,2.901065725144744
1751389814508641500,7.8386416015625,-0.34478374376296994,3.5582758344233034,2.6054744668349623
1751389814518687500,7.8486875,-0.3685702775418758,5.32617690282762,2.320772559069097
1751389814528732400,7.858732421875,-0.40228082396388054,7.20047147654891,2.2861650638073683
1751389814538778600,7.868778564453125,0.01778349511346896,9.194618172097206,2.7347037810772656
1751389814548824600,7.878824462890625,0.5172586177527905,11.39319204621315,3.082565617111325
1751389814558869500,7.888869384765625,1.3812193801105022,13.976382492786644,3.3332851757764814
1751389814568915700,7.898915771484375,1.1937222935557366,16.06711792347431,2.9787498533278702
1751389814578961700,7.908961669921875,0.9024795858442782,16.86523580209017,2.042821586868167
1751389814589007600,7.919007568359375,-0.28013564102994276,15.492168164253235,0.3350567149966955
1751389814599052500,7.929052490234375,-2.277857254189253,12.146070268654823,-1.971839002150297
1751389814609098500,7.939098388671875,-3.9887621776521205,8.632451906603574,-4.0353626007854935
1751389814619144400,7.94914453125,-4.407033182430267,5.795030678373575,-5.093365341296792
1751389814629189400,7.959189453125,-3.28438758161664,3.5197891596406694,-5.617995949122309
1751389814639235600,7.969235595703125,-1.8423767559349535,1.6829904960989952,-5.949778757014871
1751389814649281500,7.979281494140625,-0.41303602673411366,0.09498656063973904,-6.2358092830359935
1751389814659326500,7.989326416015625,0.5814116487115621,-1.1067138721883296,-6.500544507572054
1751389814669372700,7.99937255859375,1.3279349491685628,-2.0703081442087887,-6.658324501255154
1751389814679418600,8.009418701171874,2.0106763900667426,-2.936187307408452,-6.762814218777418
1751389814689464600,8.019464599609375,2.792938527902961,-3.60533627628386,-6.834633838841318
1751389814699509500,8.029509521484375,3.384938790646195,-4.2428544276207685,-6.957117478215694
1751389814709555700,8.0395556640625,3.7803053051769733,-4.925805127355456,-7.122505608814954
1751389814719601400,8.049601318359375,3.97919530788362,-5.437129094362259,-7.278354926696419
1751389814729646300,8.059646240234375,4.240571869641542,-5.924367252382636,-7.405651519310474
1751389814739692500,8.069692626953126,4.430691705915332,-6.270409471774101,-7.503545491829514
1751389814749738500,8.079738525390624,4.53340096976161,-6.444974011519551,-7.651864998728036
1751389814759783400,8.089783447265624,4.35260776475966,-6.4281181537866585,-7.826491497793794
1751389814769829600,8.09982958984375,3.9306256305038927,-6.173158473333716,-7.986284000343084
1751389814779875600,8.10987548828125,3.6294255924016237,-5.687215615820884,-8.061644654014707
1751389814789920500,8.11992041015625,3.344016705410182,-5.018422036254406,-7.986475723522901
1751389814799966500,8.129966552734375,2.479797876638174,-3.953544149276614,-7.590988797482848
1751389814810012700,8.1400126953125,0.942702582900226,-2.5238889472991226,-6.852073049420118
1751389814820057300,8.150057373046875,-1.3523629957213996,-0.44264206044673915,-5.527451170322299
1751389814830103300,8.160103271484376,-5.664809722745418,2.5014602578699585,-2.4390543628394603
1751389814840149500,8.1701494140625,-6.580536328175664,3.1057799039602276,1.5770412274181842
1751389814850195500,8.180195556640625,-3.3244226548850535,3.3018846598625182,3.516286704477668
1751389814860240400,8.190240478515625,-2.7657448160290716,4.95427543503642,5.80759146926105
1751389814870286600,8.20028662109375,-3.0394384230464695,7.533107686400413,10.33334630818367
1751389814880329000,8.210328857421874,-2.0467041273899373,9.021194619080424,14.0424860732913
1751389814890374000,8.220373779296875,-1.1505683576144277,9.625254152929783,16.768897242319582
1751389814900419800,8.230419921875,-0.4926426474124193,8.128142202273011,17.71514933439493
1751389814910466000,8.240466064453125,-0.11041202024333178,3.54890127235651,13.736293633729218
1751389814920511000,8.250510986328125,0.10076865117251872,-0.4861591306120157,6.824898042246699
1751389814930557000,8.260556884765625,0.04599949809815734,-1.5996575483739375,1.7336884176790712
1751389814940603100,8.27060302734375,-0.21221008752882478,-0.10093582443296908,-0.964803063288331
1751389814950649000,8.280649169921874,0.21765900058448315,2.423355273926258,-1.616919064298272
1751389814960693800,8.29069384765625,-0.05016366857290268,5.179586411678791,-1.8123486974179743
1751389814970740000,8.300739990234375,-0.9510814119279384,8.12528973545134,-2.1249714622884985
1751389814980786000,8.310785888671875,-0.4637251804858446,8.2800284617424,-1.0385668031573294
1751389814990830800,8.320830810546875,0.15881985812485216,5.7803089100599285,-1.025562944677472
1751389815000876800,8.330876708984375,0.33411797284185885,3.5076392876416445,-2.692606514582038
1751389815010923000,8.340923095703126,-1.0347796858340501,1.431964647963643,-3.365034066736698
1751389815020968000,8.350968017578126,-3.3964953729271885,-0.843269856506586,-4.4351632983714335
1751389815031014000,8.361013916015626,-2.442892918089032,-1.5115473032444715,-5.931126078993081
1751389815041060000,8.37106005859375,0.36377073177304114,-1.1042004280626774,-5.684636705243587
1751389815051106000,8.38110595703125,1.9642086534023284,-1.2094850953549146,-5.167183441701531
1751389815061151000,8.39115087890625,2.701015446487069,-1.4430816697835922,-5.038342542254925
1751389815071197000,8.401197021484375,3.016790537908673,-1.5232184518158436,-4.878868019613623
1751389815081243100,8.4112431640625,2.985523292985558,-1.8371955539047717,-4.848740592375397
1751389815091287800,8.421287841796875,2.7348271151959893,-1.8837614902466535,-4.8062405902981755
1751389815101333800,8.431333740234376,2.582382637321949,-1.4760878673285245,-4.685621575751901
1751389815111380000,8.4413798828125,2.71203543767333,-0.52171676620543,-4.29296432017982
1751389815121425000,8.4514248046875,2.7641823890179396,0.7629916201770305,-3.719765204018354
1751389815131470800,8.461470947265624,2.820264341723919,1.9883342098772525,-3.0765351047754286
1751389815141516800,8.471516845703125,2.831194316539168,2.8537206211239097,-2.3662480698257684
1751389815151562000,8.48156201171875,2.697335881191492,3.034054976442456,-1.6997388018041848
1751389815161608000,8.49160791015625,2.4048960726499558,2.6981816843658684,-1.157762214641273
1751389815171654000,8.50165380859375,2.0324919160336257,2.1612503978937863,-0.843810831515491
1751389815181700000,8.5117001953125,1.670334428143501,1.4819295790940523,-0.6208522632181644
1751389815191745000,8.5217451171875,1.3613438822954893,0.7352063721507788,-0.48496933630555866
1751389815201790700,8.531790771484374,1.1459908936310559,-0.04625029452145099,-0.44274259821176526
1751389815211837000,8.5418369140625,0.9722879391510039,-0.7814742023289203,-0.3713157768577337
1751389815221881900,8.5518818359375,0.7195558716196566,-1.3766232844918966,-0.1263239481896162
1751389815231927800,8.561927734375,0.5620932733226567,-1.8671248282223938,0.08673369607925414
1751389815241973800,8.571973876953125,0.5701210238903761,-2.1957658309578894,0.20948943039327858
1751389815252019000,8.58201904296875,0.5017763864606618,-2.4344003995537755,0.3450195983454585
1751389815262065000,8.59206494140625,0.4109340860188007,-2.6618641703158614,0.47481326847225425
1751389815272110800,8.60211083984375,0.39905426313281056,-2.8086750262171027,0.5226990552410483
1751389815282157000,8.612156982421874,0.3218727872421965,-2.8418466434568166,0.6747799604997038
1751389815292202000,8.622201904296874,0.1535585400631651,-2.6657974181115627,0.9917252647444605
1751389815302248000,8.632248046875,-0.011028759014606475,-2.259877945384383,1.4587003869369626
1751389815312294000,8.6422939453125,0.12823000100664794,-1.7948884440511463,1.9725991728678345
1751389815322338800,8.6523388671875,0.4894189361255616,-1.4462690676480532,2.3067174379706383
1751389815332384800,8.662384765625,-0.25851430419459936,-1.152991639238596,2.8542753323972225
1751389815342430700,8.6724306640625,-1.023081795386225,-0.9884761998206376,3.4550153664350507
1751389815352476000,8.682475830078126,-1.308578652922064,-0.9735644618928432,3.669160513679683
1751389815362521900,8.69252197265625,-1.6270692869126795,-1.0503361514061689,3.685610128699243
1751389815372567800,8.70256787109375,-1.9270880062758922,-1.0399696556925773,3.8238451716959476
1751389815382613000,8.712613037109374,-2.068667099003494,-0.9019465018808841,4.070249789771437
1751389815392659000,8.722658935546875,-1.9802827131077647,-0.702053459611535,4.390967598292232
1751389815402705000,8.732704833984375,-1.7836065870583055,-0.33488545008301734,4.794236848771572
1751389815412750800,8.742750732421875,-1.492976458287239,0.20713176135122774,5.421301410633325
1751389815422796000,8.752796142578125,-1.122195665089041,0.7837403936952352,6.323570568597316
1751389815432842000,8.762842041015626,-0.5579378341436386,1.324249538654089,7.759207183071971
1751389815442888000,8.772887939453126,-0.16905863580554722,1.6150439180761575,9.597641338860988
1751389815452932900,8.782932861328124,-0.7335738025128841,1.4285171378582715,10.407471867102384
1751389815462978800,8.792978759765624,-1.6596759637460112,0.910689780306816,10.147264933645724
1751389815473024800,8.803024658203125,-2.1178055161818863,0.1361842479467392,9.482500463464856
1751389815483070000,8.813070068359375,-2.2639330659940837,-0.6592822393774986,8.85850054987073
1751389815493116000,8.823115966796875,-2.1420226964630187,-1.3906050480931997,8.594457399252057
1751389815503161900,8.833161865234375,-1.9165175124228,-2.2741139760077,8.723651349920035
1751389815513207800,8.843207763671876,-2.6788264110326767,-3.434772788873315,9.489743858721852
1751389815523253000,8.8532529296875,-4.388196672274172,-4.39222022870183,9.683582423257826
1751389815533299000,8.863298828125,-4.734609770804643,-4.970847799652814,8.607494575479626
1751389815543345000,8.873344970703124,-4.32653282778263,-5.134911988171935,7.39665105125308
1751389815553390000,8.88339013671875,-3.6393981203615664,-4.462278684312105,6.136369250118732
1751389815563436000,8.89343603515625,-2.9341315439224243,-2.721232305085659,5.0479561737746
1751389815573482000,8.90348193359375,-2.2424305514991283,-0.8468436233401297,4.064275391536951
1751389815583527000,8.91352685546875,-1.4386463176846502,0.7384639126420021,3.5083345764294265
1751389815593572900,8.92357275390625,-0.6651881754856557,2.4687691176235673,3.258271728107333
1751389815603618800,8.933618896484376,-0.037221184891462325,4.295224081805348,2.9834441486239434
1751389815613664000,8.9436640625,0.20576690273880957,6.288305778470635,2.9446994074270125
1751389815623710000,8.9537099609375,0.2704723068833351,8.30356365110874,3.2000247063219547
1751389815633756000,8.963755859375,0.6189455528140068,10.370669199883936,3.5218712266117334
1751389815643801900,8.9738017578125,1.1403121904075144,12.494817070829868,3.7223721716463563
1751389815653847000,8.983846923828125,1.6504887409448623,14.84408536428213,3.771866562655568
1751389815663893000,8.99389306640625,1.134859770220518,16.709453704226014,3.1020594221323727
1751389815673939000,9.00393896484375,0.12349544676542282,17.04505344005823,2.0757734238773584
1751389815683984100,9.013984130859376,-0.5257435375034809,15.09853008095026,0.18277648777365682
1751389815694029800,9.02402978515625,-1.8463398143470287,11.50281561949253,-2.178195102953911
1751389815704075800,9.03407568359375,-3.4149709408164024,8.20677150235176,-3.977520652669668
1751389815714121000,9.044120849609374,-4.0058547667503355,5.401256985992193,-5.1327545178771015
1751389815724167000,9.0541669921875,-3.087728698962927,3.0610429366111753,-5.763081296405196
1751389815734212900,9.064212890625,-1.6239350805401802,1.3378554546803236,-5.927332531929015
1751389815744258000,9.074258056640625,-0.0029109190106391906,-0.07217384032905101,-6.049971069604158
1751389815754304000,9.084303955078125,1.0225298605918884,-1.19244745131433,-6.1668672642350195
1751389815764350000,9.094349853515626,1.9032909511029719,-2.307278578984737,-6.238999603509902
1751389815774396000,9.10439599609375,2.658500246840715,-3.2000627002447843,-6.3800757151514285
1751389815784441000,9.114441162109374,3.464776297470927,-4.025580042439699,-6.526352902567386
1751389815794487000,9.124487060546874,4.0834968093574044,-4.815914427572489,-6.714796914583444
1751389815804533000,9.134532958984375,4.47590155147314,-5.489312870585918,-6.897942820191383
1751389815814578000,9.144577880859375,4.658367658123374,-6.11619506161809,-7.0220192817151545
1751389815824623900,9.154623779296875,4.798241992759705,-6.566828120818734,-7.090584283897281
1751389815834669800,9.164669921875,5.10629379645288,-6.879850114139914,-7.240308981418609
1751389815844714800,9.17471484375,5.193540702751279,-7.011591995725035,-7.456099265521765
1751389815854761000,9.184760986328126,5.046144740438461,-6.953104150921106,-7.6285238706290714
1751389815864807000,9.194806884765624,4.862006608922779,-6.63378861041367,-7.784891659426688
1751389815874851800,9.204851806640624,4.6531011158972975,-6.103515612787008,-7.7601055932164185
1751389815884897500,9.2148974609375,4.190464899691939,-5.515654349544644,-7.678831916108727
1751389815894943500,9.224943603515625,3.1787820118069647,-4.7261523235827685,-7.569716876873374
1751389815904989400,9.234989501953125,0.564715511585027,-3.033970805290341,-7.248436173772811
1751389815915034600,9.24503466796875,-5.552976656723022,0.8249059322983026,-5.67357112134993
1751389815925080600,9.25508056640625,-11.63051260960102,3.6098189746558664,-0.7852665803492069
1751389815935126500,9.26512646484375,-6.928912543472647,2.6168109766244885,2.0831232021182773
1751389815945171700,9.275171630859376,-4.201086831471324,3.5126065546602008,3.168809483847022
1751389815955217700,9.2852177734375,-2.717528189870715,5.359890371859073,5.476500735285878
1751389815965263600,9.295263671875,-1.6016056137017904,7.9860671427220105,9.573549684655665
1751389815975308500,9.30530859375,0.10860869714841245,9.902399361705779,13.787618162775038
1751389815985354800,9.315354736328125,1.3606833725601435,10.152149198555946,16.31192036705017
1751389815995400700,9.325400634765625,2.043981278297305,8.726053150364756,16.34511770325303
1751389816005445400,9.3354453125,1.758487927892804,6.174448513144254,11.689790143477916
1751389816015491600,9.34549169921875,0.9915251390624791,5.622375771641731,4.869695702120661
1751389816025537500,9.35553759765625,0.870112855246663,6.508066719770431,1.4325567686378955
1751389816035583500,9.36558349609375,0.6868921308368444,7.983608059132099,0.10817395899295806
1751389816045628700,9.375628662109374,0.5634831933110952,7.660680757868289,-0.3437403721898794
1751389816055674600,9.385674560546875,0.8192033367425203,5.290143466416001,-0.3586269756764173
1751389816065720600,9.395720458984375,0.9919424146264791,3.2490292679876087,-1.5944067882388828
1751389816075765500,9.405765625,0.20886253066658972,1.0960574536174534,-3.026212446248531
1751389816085811700,9.415811767578125,-3.8110879814535377,-2.148830476781726,-4.425769447082281
1751389816095857700,9.425857666015625,-4.69330570051372,-3.509335570165515,-6.281850903242826
1751389816105902300,9.43590234375,-1.4911901593923569,-2.8714649521291253,-6.6964516950756305
1751389816115948500,9.445948486328126,1.129863277107477,-2.1782091314792633,-5.800256304067373
1751389816125994500,9.455994384765624,1.5511258649170399,-1.9567723659217358,-5.393713146483898
1751389816136039400,9.466039306640624,1.7955518763959406,-1.9645348166167735,-5.348038606023788
1751389816146085400,9.47608544921875,2.2700322596520186,-2.013411952510476,-5.203626043435931
1751389816156131600,9.486131591796875,2.6658558703005313,-1.8417963256984948,-5.035520470571518
1751389816166177500,9.496177490234375,2.878891887259483,-1.4286235208421945,-4.839218146270513
1751389816176222500,9.506222412109375,2.8694021743804217,-0.5607534760862588,-4.516110812264681
1751389816186268700,9.5162685546875,3.088288670933246,0.6118956343024968,-4.077273404797912
1751389816196314600,9.526314697265626,3.354534300032258,1.824315614065528,-3.5788895833849903
1751389816206359600,9.536359619140624,3.5788726322501896,2.881851906108856,-3.0252444779992103
1751389816216405500,9.546405517578124,3.628236674878001,3.508868537175655,-2.3909297988787293
1751389816226451700,9.55645166015625,3.1563235117614266,3.364049147352576,-1.892712566204369
1751389816236496400,9.566496337890625,2.469021631079912,2.7073253602862355,-1.572188818950951
1751389816246542300,9.576542236328125,1.7983353696346283,1.9167460604816675,-1.214564590576291
1751389816256588500,9.586588623046875,1.2232470787256955,1.0807716216802596,-0.8716524859040975
1751389816266633500,9.596633544921875,0.8330845625787973,0.24708032537996769,-0.588862549239397
1751389816276679400,9.606679443359376,0.30527883184850213,-0.6024836628347635,-0.10417816735506057
1751389816286725600,9.6167255859375,-0.09135784874856472,-1.3641197767496107,0.3205094264671206
1751389816296770600,9.6267705078125,-0.07076163544356823,-1.9052046757698058,0.48040948104411363
1751389816306816500,9.63681640625,0.017001403683423996,-2.2171108168035745,0.6257324364751577
1751389816316862500,9.646862548828125,-0.08323825517892837,-2.3971511576116082,0.7736556375324726
1751389816326908700,9.65690869140625,-0.318690759672597,-2.559237324056029,0.9360364030092954
1751389816336953600,9.66695361328125,-0.4833528410196304,-2.687517667010426,1.0701096501514316
1751389816346999600,9.67699951171875,-0.553483850409463,-2.7636352765291927,1.0466036868795752
1751389816357045800,9.687045654296876,-0.5796002884406596,-2.7584944065093993,1.0602151558637618
1751389816367090400,9.69709033203125,-0.5390566080629825,-2.5386738439768552,1.225868367139995
1751389816377136400,9.707136474609374,-0.6742775639355182,-2.119969123956561,1.5975465475693345
1751389816387182600,9.7171826171875,-0.8171535646058619,-1.63659874728024,2.0142054409757257
1751389816397227500,9.7272275390625,-0.7830955199204385,-1.1803449255883693,2.4629402653396126
1751389816407273500,9.7372734375,-0.6864741976857185,-0.785935857912898,2.923738160201907
1751389816417319400,9.7473193359375,-0.6078831837907434,-0.5036708219051361,3.363564286445081
1751389816427364600,9.757364501953125,-0.5301075779318809,-0.08990706541836262,3.793392750287056
1751389816437410600,9.76741064453125,-0.8975520663142204,0.23870237313508985,3.8226235209465025
1751389816447456500,9.77745654296875,-1.5632821666568517,0.2408224340289831,3.779585758730769
1751389816457501700,9.787501708984376,-2.125040435871482,0.23157120608091353,4.14358595187813
1751389816467547600,9.797547607421874,-2.493565705227852,0.12769348297715186,4.496754954409599
1751389816477593600,9.807593505859375,-2.9916520049989224,0.015815408769249917,4.794391747072339
1751389816487639600,9.8176396484375,-3.326128289759159,-0.12223463304936885,5.242685549670457
1751389816497684500,9.8276845703125,-2.841810403099656,-0.1341612176865339,5.823527874061465
1751389816507730400,9.83773046875,-2.059699656432867,0.04700666584670543,6.624205374032258
1751389816517776400,9.8477763671875,-1.3565686307176947,0.10082476527392864,7.665823965975642
1751389816527821600,9.857821533203126,-0.9970390071131289,-0.04548749345541,8.674964768162369
1751389816537867500,9.867867431640626,-1.1233449812546372,-0.3150724961102009,9.122283588248491
1751389816547913500,9.87791357421875,-1.656602839910984,-0.4880523970127105,8.832249087283015
1751389816557958700,9.887958740234374,-2.021398275089264,-0.6460375578790902,8.488253279027342
1751389816568004600,9.898004638671875,-2.0359028935208916,-0.9869003288060426,8.282325632768869
1751389816578050600,9.908050537109375,-1.9962487823940813,-1.3952747934699057,8.23096252527833
1751389816588095700,9.918095703125,-1.7288206655122338,-1.8620809888362884,8.30211228325665
1751389816598141700,9.9281416015625,-0.9408397116377949,-2.4236352599114177,8.13606773457527
1751389816608187400,9.9381875,0.008173954105377197,-2.936929065686464,7.5822081096559755
1751389816618232600,9.948232666015626,0.5055553204774856,-3.1236767951786515,6.91863080343306
1751389816628278500,9.958278564453124,-0.08717924788966774,-2.8343063110798594,5.870449784234165
1751389816638324500,9.968324462890624,-0.8234313297010958,-1.764875583103299,4.428707838621735
1751389816648370400,9.978370361328125,-0.9201520206570625,-0.426838342115283,3.2118399395391344
1751389816658415600,9.98841552734375,-0.9761949565269052,0.928618235707283,2.3830668104186654
1751389816668461600,9.998461669921875,-1.2005027474761008,2.4407132359623906,1.89043526892215
1751389816678507500,10.008507568359375,-2.23187174808383,4.465581817510723,1.455361305642128
1751389816688552700,10.018552734375,-4.430458481681347,7.1110916498750445,1.0950918234556912
1751389816698598700,10.0285986328125,-5.265201332861185,9.282084858626126,1.4371782909587025
1751389816708644600,10.03864453125,-4.536247591364384,11.211403400433063,2.0356787293761966
1751389816718689500,10.048689453125,-3.0611762076020237,13.165824819314478,2.5300229200094937
1751389816728735500,10.058735595703125,-1.9676865586459635,14.751139369559287,2.5466589975118636
1751389816738781400,10.068781494140625,-1.0853449209451675,15.295800373500585,1.9499404740750788
1751389816748826600,10.07882666015625,-0.31176994743347164,13.696954141509533,0.5791343514293432
1751389816758872600,10.08887255859375,0.36230420288443566,10.698901621818543,-1.0497533830821513
1751389816768918500,10.09891845703125,0.7144774723768234,7.540357511398196,-2.6234996606081724
1751389816778963500,10.10896337890625,0.845196440654993,5.227780241483449,-3.4978941386967897
1751389816789009700,10.119009765625,0.7365209618806838,3.0859611047685145,-4.3040228898108
1751389816799055600,10.1290556640625,0.2543243051588535,0.9189671947866678,-4.988316820847988
1751389816809100500,10.1391005859375,0.14958441226780414,-0.9259510623246431,-5.5850967190831895
1751389816819146800,10.149146728515625,0.2056663649737835,-2.551941906350851,-6.1093123163670295
1751389816829192700,10.159192626953125,0.33586514530275013,-3.706333475515246,-6.460422925063967
1751389816839238700,10.16923876953125,0.6418640715867281,-4.554775766223669,-6.67817603367269
1751389816849283600,10.17928369140625,1.0891589993406086,-5.145236398309469,-6.810584854733944
1751389816859329500,10.18932958984375,1.616309407967329,-5.59841271225214,-6.932760451072454
1751389816869375500,10.19937548828125,2.1024019030839205,-6.029755964571237,-7.1499693698018785
1751389816879420400,10.20942041015625,2.4052187287330624,-6.417197531321644,-7.309086165046692
1751389816889467000,10.219466796875,2.8117601327508686,-6.620956016847491,-7.396631177508831
1751389816899513000,10.22951318359375,3.3898622185230254,-6.6139896849662065,-7.470323021185398
1751389816909558000,10.23955810546875,3.864654151946306,-6.347777373614907,-7.501202728095651
1751389816919604000,10.24960400390625,4.290650782540441,-5.900625142267346,-7.59307320254147
1751389816929650200,10.259650146484375,4.583986078616976,-5.344574144783616,-7.667045616725087
1751389816939695000,10.269695068359376,4.752969018837809,-4.604765831795334,-7.573560108298063
1751389816949741000,10.279740966796876,4.62607340824008,-3.746262165799737,-7.206838673493266
1751389816959787000,10.289787109375,3.888997442825138,-2.7912743940830227,-6.730186791417002
1751389816969832000,10.29983203125,2.4852251623839137,-1.7117355290681122,-6.331814665329456
1751389816979878000,10.3098779296875,0.019130232405662535,-0.0949661023736,-5.740463221883774
1751389816989923800,10.319923828125,-5.2857057762295,3.0678111155718564,-4.210096651878953
1751389816999969000,10.329968994140625,-10.165527735567093,5.578795573112369,0.29416297907233235
1751389817010015000,10.340014892578125,-6.4121174515783785,4.637539974150061,4.029017615672946
1751389817020061000,10.35006103515625,-4.31655737721324,5.338519082528353,6.061804130738973
1751389817030106000,10.360106201171876,-4.04486283505857,7.2587377875566474,9.768048174405097
1751389817040152000,10.370152099609374,-2.031241623711586,8.66151842661202,12.729626528179645
1751389817050198000,10.380197998046874,-0.45044243199937045,8.93182998997569,14.317313068252801
1751389817060244000,10.390243896484375,0.0455881042856723,8.017871563261746,14.893198062497376
1751389817070289000,10.400288818359375,0.44829256048910315,4.726031912073493,11.959697802215814
1751389817080334800,10.4103349609375,0.3098321843039244,1.284741119608283,6.601667963531613
1751389817090380800,10.420380859375,0.3733463693698868,1.3626076186209917,2.3321599222630263
1751389817100426000,10.430426025390625,0.7997755826950073,3.7461475995093583,0.20794190869033335
1751389817110472000,10.440471923828126,1.3360522046506405,6.481406091859936,-0.06398001247942448
1751389817120518000,10.450517822265626,1.452425252190232,8.341711887717247,0.3012584902912378
1751389817130563000,10.46056298828125,1.9147545944035052,7.34486007373929,0.7654314145445823
1751389817140609000,10.470609130859375,2.0858459050804377,5.0271658992022275,-0.5963531972557305
1751389817150655000,10.480655029296875,1.9118202945172786,2.899939351463318,-2.301775305393338
1751389817160700200,10.4907001953125,0.21029873748216776,0.41947044369578357,-3.2837276564031836
1751389817170746000,10.50074609375,-2.599830031207204,-2.056924931022525,-4.6037125233501195
1751389817180792000,10.5107919921875,-1.8413620259344576,-2.7367747421324253,-6.098392278423905
1751389817190837000,10.5208369140625,0.8175316041380166,-2.2990286370337008,-5.751322469550371
1751389817200883000,10.530883056640626,1.992971806550026,-2.252509462442994,-5.313618450027704
1751389817210929000,10.540928955078124,2.313938621395826,-2.486805125051737,-5.34460395539999
1751389817220974000,10.55097412109375,2.5301947694450617,-2.720730200782418,-5.304200633341074
1751389817231020000,10.56102001953125,2.4671038147598505,-2.6971874126315116,-5.228303388574719
1751389817241066000,10.57106591796875,2.201876422792673,-2.3533494252860545,-5.09955893523991
1751389817251112000,10.58111181640625,2.081055748194456,-1.6918763978660105,-4.8581759447187185
1751389817261157000,10.5911572265625,2.1849726342648266,-0.6519821454972028,-4.526641558629274
1751389817271203000,10.601203125,2.5199936934262515,0.569942160192132,-4.124716123974323
1751389817281249000,10.6112490234375,3.0002696112185716,1.8197487445414064,-3.701954822039604
1751389817291294200,10.621294189453126,3.1960692466944454,2.810110611978173,-3.13524272980988
1751389817301340200,10.631340087890624,2.805634343346953,3.1089544423431157,-2.5076190727606416
1751389817311386000,10.64138623046875,2.211158630400896,2.8826661451011892,-2.025529091283679
1751389817321431000,10.65143115234375,1.613276908403635,2.3186849391400814,-1.6501725146025419
1751389817331477000,10.66147705078125,1.125962251080945,1.5653654026716948,-1.376285138578713
1751389817341523000,10.67152294921875,0.8233318879146129,0.6881137815862893,-1.1825859825134277
1751389817351568000,10.68156787109375,0.46119193568117917,-0.26541151636242866,-0.9199833860918879
1751389817361614000,10.691614013671876,-0.08483458445966244,-1.122627480635047,-0.5470245182022452
1751389817371660000,10.701659912109376,-0.2797533819803968,-1.7830097902089357,-0.3752656835272908
1751389817381705000,10.711705078125,-0.15982640481889246,-2.174348948919773,-0.32322336160093545
1751389817391751200,10.721751220703124,-0.06367489205300808,-2.4441063855320215,-0.21936960389465093
1751389817401797000,10.731797119140625,-0.1518167013645172,-2.629559983560443,0.003653554071485996
1751389817411842000,10.741842041015625,-0.28169859776403755,-2.698286898306012,0.1646507562354207
1751389817421888000,10.751887939453125,-0.358166956949234,-2.701893398365378,0.2465054481014609
1751389817431934200,10.761934326171875,-0.3040822424750775,-2.584379948619008,0.40418402723670005
1751389817441979000,10.771978759765625,-0.18480602083988487,-2.299876193773746,0.6650453329488635
1751389817452024800,10.78202490234375,-0.23908706160373985,-1.8170991068154572,1.0745648759946227
1751389817462071000,10.792071044921874,-0.3789854347027838,-1.2348089217036962,1.708686662891507
1751389817472116000,10.802115966796874,-0.546158695153147,-0.660016398870945,2.3903321252465246
1751389817482162000,10.812161865234375,-0.8596564892925321,-0.18162731773853302,3.0552760436475275
1751389817492208000,10.8222080078125,-1.1157295378148555,0.09726268887817859,3.570759176160395
1751389817502254000,10.832254150390625,-1.2840426159501075,0.12364800697863101,3.674899057331681
1751389817512299000,10.842299072265625,-1.4279263323582707,0.01812310118973255,3.607287410351634
1751389817522345000,10.852344970703125,-1.5661166594304143,0.014589081844687461,3.7677152881950136
1751389817532391200,10.86239111328125,-1.4882567362889647,0.18026187460422516,4.263079469525814
1751389817542436000,10.87243603515625,-1.1281491666659713,0.48065819510817526,5.12106349556148
1751389817552482000,10.88248193359375,-0.9785960263192653,0.5892781443029642,6.007641163396835
1751389817562528000,10.892528076171875,-1.226573300538957,0.6083166067719459,6.7388733712196345
1751389817572573000,10.902572998046875,-1.6153145517110823,0.7049521036624908,7.536856809800863
1751389817582619000,10.912618896484375,-1.7316300238445401,0.7084183184683323,8.357004733917117
1751389817592664800,10.922664794921875,-1.594233477498591,0.48415714313983915,8.90926393790245
1751389817602710000,10.9327099609375,-1.1814330130860209,-0.0038712884753942488,9.326576326781511
1751389817612756000,10.942755859375,-0.4887257662296295,-0.7477753463447093,9.744887079048157
1751389817622802000,10.952802001953126,-0.40956791223213074,-1.3936591749668121,9.731179456213116
1751389817632847000,10.96284716796875,-0.9744444595977664,-1.90107502861917,9.122502199435234
1751389817642893000,10.97289306640625,-1.395624191429466,-2.5227462070047855,8.4037010186404
1751389817652939000,10.98293896484375,-1.1969419862546027,-3.331163361316919,7.795418898659944
1751389817662984000,10.99298388671875,-0.6633503655992448,-4.21025038113594,7.582741778141259
1751389817673030000,11.00302978515625,-1.1284664889868348,-5.157103361713886,7.983897397467493
1751389817683075800,11.013075927734375,-2.5740157909929753,-5.51622192029953,7.554249843150377
1751389817693121000,11.02312109375,-3.754325645267963,-5.060258605986833,6.355759020018577
1751389817703167000,11.0331669921875,-4.625824401915073,-3.233717132565379,4.7600393956154585
1751389817713213000,11.043212890625,-4.328985481631755,-1.238147710737586,3.278578018555045
1751389817723259000,11.0532587890625,-3.4253567257523536,0.19424480724930762,2.569370011013746
1751389817733304000,11.063303955078124,-2.48539993442893,1.7093687999367713,2.414367373089492
1751389817743350000,11.07335009765625,-1.7244599860846996,3.728978438043594,2.4820424406945705
1751389817753396000,11.08339599609375,-1.173060613799095,6.052594988366961,2.4787334622770545
1751389817763441200,11.093441162109375,-1.0226643006265164,8.439892275962233,2.8726626374810933
1751389817773487000,11.103487060546875,-0.7081611288368701,10.728695871579646,3.4582162083029746
1751389817783533000,11.113532958984376,-0.01667524960213341,13.194280513948202,3.9497926877886056
1751389817793578000,11.123577880859376,1.004891328048706,15.791494809699058,4.241791182303428
1751389817803624000,11.1336240234375,0.7759925560474396,17.830405360603333,3.914869258445501
1751389817813670000,11.143669921875,-0.8487935883641242,17.737651089060307,2.277858423233032
1751389817823715000,11.153715087890625,-1.4703437707185745,14.513970781862735,0.1940671125948429
1751389817833761000,11.163760986328125,-2.2300293350875378,10.721114622670411,-1.8643769908189773
1751389817843807000,11.173806884765625,-2.7368542371094224,7.53050247233808,-3.3809529358804222
1751389817853852200,11.18385205078125,-2.703542334616184,4.810025954055786,-4.496210180008411
1751389817863898000,11.193898193359376,-2.578808870488405,2.40056125831604,-5.3789533842474215
1751389817873944000,11.203944091796876,-1.741867047959566,0.5314572389751673,-5.860357429286838
1751389817883989200,11.2139892578125,-0.4661036000549793,-0.8071469882458447,-6.161709443080425
1751389817894035500,11.224035400390624,0.4954939451903104,-1.919654641404748,-6.404787547081709
1751389817904081400,11.234081298828125,1.362810447716713,-2.8124878625035286,-6.577258913940191
1751389817914126300,11.244126220703125,2.269336094081402,-3.5230583905696866,-6.72774758157134
1751389817924172300,11.25417236328125,3.0848388227403163,-4.089672283121943,-6.921967838901281
1751389817934218500,11.264218505859375,3.6264959686905143,-4.681414771711826,-7.086641099229454
1751389817944263400,11.274263427734375,4.055863537022471,-5.1905590565919875,-7.219955929219722
1751389817954309400,11.284309326171876,4.43061864067912,-5.652661604312062,-7.302708446708321
1751389817964355600,11.29435546875,4.906147656205296,-5.9932765379577875,-7.371840435123443
1751389817974400300,11.304400146484374,5.142608972415328,-6.252312674069405,-7.458772868645191
1751389817984446200,11.3144462890625,5.073577521765232,-6.394294794639944,-7.599422863829135
1751389817994492400,11.324492431640625,4.89375696118772,-6.425744994914531,-7.827441345864534
1751389818004538400,11.334538330078125,4.6865386905968185,-6.221409001761675,-8.019809253326057
1751389818014583300,11.344583251953125,4.407896521261335,-5.67006515905559,-8.054101399028301
1751389818024629200,11.354629150390625,3.942145387905836,-4.847549336764216,-7.9120964821040625
1751389818034675500,11.364675537109376,2.7657325410693883,-3.4446050315797327,-7.383201202571391
1751389818044720400,11.374720458984376,0.2037795283138752,-1.4802929178029298,-6.481311399313807
1751389818054766300,11.384766357421874,-5.610482504752278,1.7647610168129204,-4.485220583960413
1751389818064812500,11.3948125,-11.437156275624035,4.001414153954387,0.2748164735674858
1751389818074857500,11.404857421875,-8.05086022514999,3.7571658371299503,3.134530197626352
1751389818084903400,11.4149033203125,-4.986147075593471,4.552166460508108,4.241368572977185
1751389818094949400,11.424949462890625,-3.6011633745133875,5.961013267734646,6.383088925492763
1751389818104994300,11.434994384765625,-2.3019978621028363,8.077741217812894,10.165819996511935
1751389818115040300,11.445040283203125,-0.2396288403302431,9.200842745700479,13.270260176301
1751389818125086200,11.455086181640626,0.730090052050352,8.969282645535468,15.343616602164506
1751389818135131400,11.46513134765625,1.024279261542484,6.523910770112276,14.553009829831122
1751389818145177300,11.47517724609375,1.0614859795171767,1.8069605746388435,8.820365757265687
1751389818155223300,11.485223388671875,1.0395587368041277,-1.0824170507997273,2.788734061950445
1751389818165268500,11.4952685546875,1.099631804972887,-1.154787290483713,-0.600600917828083
1751389818175314400,11.505314453125,1.9193769935071467,0.7343880415052175,-1.7326818709850311
1751389818185360400,11.5153603515625,2.5306647250443697,3.5955408584564923,-1.50688749473989
1751389818195405600,11.525405517578125,1.5796604700058698,6.913179552289843,-1.6855413496255873
1751389818205451500,11.535451416015626,-1.0922603994220494,10.623213051366806,-1.4314754031419754
1751389818215497500,11.54549755859375,-1.1962754851698876,9.082980336385965,0.1122200195133686
1751389818225542400,11.55554248046875,-1.0611480527997017,5.900555584162474,-1.4605723182886838
1751389818235588400,11.56558837890625,-1.7115321154505014,3.841117793536186,-2.879516741159558
1751389818245634300,11.57563427734375,-2.6684774509757756,1.7812088782668112,-3.8646494757711887
1751389818255680300,11.58568017578125,-1.5681179162502288,0.7293132224589586,-4.702248885425925
1751389818265725400,11.595725341796875,0.3389408629536628,0.30297347751557824,-4.699874557510018
1751389818275771400,11.605771484375,1.1499895348131657,-0.30421617105305193,-4.472921658879518
1751389818285817300,11.6158173828125,1.509810104188323,-1.1277812101364135,-4.61697181789577
1751389818295862500,11.625862548828126,2.025484083098173,-2.019989577335119,-4.717146594828367
1751389818305908500,11.635908447265624,2.1596394555658103,-2.749412689909339,-4.717305584782362
1751389818315954400,11.645954345703124,2.02688868919909,-3.185241563209891,-4.757138413476944
1751389818325999600,11.65599951171875,2.026047562199831,-3.187896461632848,-4.779050385555625
1751389818336045300,11.66604541015625,2.148162368261814,-2.7616630996733904,-4.663095855689049
1751389818346091300,11.67609130859375,2.5774375821352002,-1.9404583599805831,-4.409008866417408
1751389818356136400,11.686136474609375,3.0298657080590723,-0.7815642186999321,-3.8900715017974377
1751389818366182400,11.696182373046875,3.339727776044607,0.3621522271931171,-3.311892551396787
1751389818376228400,11.706228271484376,3.4391952814906834,1.098156471723318,-2.712555954416096
1751389818386273300,11.716273193359376,3.1864293116897344,1.4973843378573655,-2.1958044094026086
1751389818396319500,11.726319580078124,2.7317612978845833,1.6625532727479935,-1.6777344752669334
1751389818406365400,11.736365478515625,2.294280565723777,1.6420160961538552,-1.1544526517018676
1751389818416410400,11.746410400390625,1.3990204097390173,1.4150439083009958,-0.3808756323635578
1751389818426456600,11.75645654296875,0.6985153486132621,0.8782049762874841,0.16352847420722244
1751389818436502500,11.76650244140625,0.6637748746216297,0.19667115761339662,0.09544102640897036
1751389818446547200,11.776547119140625,0.7070417694181204,-0.35614334216713905,-0.11955664601176977
1751389818456593200,11.78659326171875,0.5451870736420155,-0.7416115630179643,-0.09048515756726265
1751389818466639400,11.796639404296876,0.29785485586021093,-1.086865846902132,0.2126394188567996
1751389818476684300,11.806684326171874,0.09343575100116432,-1.3803946197241543,0.5878907815977931
1751389818486730200,11.816730224609374,-0.05788290118072181,-1.6070014813959597,0.9007619682714343
1751389818496776400,11.8267763671875,-0.24391170528121292,-1.6983651753634212,1.1076011764168738
1751389818506822400,11.836822509765625,-0.3797345725696534,-1.714737048971653,1.277668989264965
1751389818516867300,11.846867431640625,-0.4263059157390147,-1.6047271067231892,1.4445453125953673
1751389818526913300,11.856913330078125,-0.367822089523077,-1.3142320025086403,1.7674553704634308
1751389818536959500,11.86695947265625,-0.3155412826657295,-0.9541752862900496,2.192069899049401
1751389818547004400,11.87700439453125,-0.34840441847816106,-0.7291822895556688,2.6169433708325025
1751389818557050400,11.88705029296875,-0.5252281353272498,-0.7195254034161567,2.826058999477327
1751389818567096600,11.8970966796875,-0.8512452192999422,-0.896299435904622,2.9736557450592516
1751389818577141200,11.907141357421875,-1.219019378028065,-1.1629688433736562,3.0483290009886024
1751389818587187200,11.917187255859375,-1.4361878186166286,-1.3902975895792244,2.925485588391125
1751389818597233400,11.9272333984375,-1.6065176434017716,-1.512327639967203,2.8986548646107315
1751389818607278300,11.9372783203125,-1.8063446346975862,-1.4035609757781027,3.3232734848499295
1751389818617324300,11.94732421875,-1.881055592288822,-0.9730383921921253,4.152544626620411
1751389818627370200,11.957370361328126,-1.644206007413566,-0.5288637153506278,5.005370246979594
1751389818637415400,11.96741552734375,-1.45475135705024,-0.1668441746264696,5.891482635390759
1751389818647461400,11.97746142578125,-1.408765558683872,0.1383627610296011,6.899743732133508
1751389818657507300,11.98750732421875,-1.2842659033119679,0.27192542830109595,7.943349113979935
1751389818667552500,11.997552490234375,-0.9043570701539516,0.019286299750208853,8.842696247017383
1751389818677598500,12.007598388671875,-0.3949903746947646,-0.6762216837406158,9.39931072360277
1751389818687644400,12.01764453125,-0.49406128203868865,-1.6330506994098424,9.247207021990418
1751389818697689300,12.027689453125,-1.232507659024,-2.368108018478751,8.28603325511515
1751389818707735300,12.0377353515625,-1.7235210977993904,-2.601998607417941,7.387295778408646
1751389818717781200,12.04778125,-1.7464882780194282,-2.8764444941073655,7.07355833029449
1751389818727826400,12.057826416015626,-2.094336085528135,-3.6029134330511092,8.36768511788547
1751389818737872400,12.067872314453124,-3.223026811724901,-4.169093025839328,9.347609177938104
1751389818747918300,12.07791845703125,-3.5847546760261055,-3.980355583834648,8.268013614299893
1751389818757964300,12.08796435546875,-3.540818503665924,-3.4481495723187923,7.095879467695951
1751389818768009500,12.098009521484375,-3.0166964298844334,-2.431727380952239,5.651649212399125
1751389818778055400,12.108055419921875,-1.9756033231198786,-1.2114344758570192,4.5252319840922945
1751389818788101400,12.118101318359376,-1.2376935372292994,-0.03032148850560188,3.8853321983158584
1751389818798146600,12.128146484375,-0.8701379896879196,1.1797037050753831,3.5669200363889333
1751389818808192500,12.138192626953124,-0.4572469243824482,2.505405780625343,3.3314085682496426
1751389818818238500,12.148238525390624,0.09744915136098861,4.072584954720735,2.7578186992049214
1751389818828283400,12.158283447265624,0.7089163311183452,5.758621394386887,2.128142785800993
1751389818838329300,12.168329345703125,1.0522855319082736,7.465311915025114,2.246849244724214
1751389818848375300,12.178375244140625,1.185135082474351,9.112782769453524,2.537777187398076
1751389818858420500,12.18842041015625,1.7395844899803399,10.81882563983798,2.714632468429208
1751389818868466400,12.198466552734375,2.547775434321165,12.675523182070254,2.7460148641645907
1751389818878512400,12.208512451171876,3.0047634155064817,14.256117133533953,2.113286285191774
1751389818888557800,12.218557861328126,1.8327905969440936,14.85176948904395,1.222405367204547
1751389818898604000,12.22860400390625,1.0816209319859742,13.628725239413976,0.01590542514026165
1751389818908650000,12.23864990234375,-0.24318214889764783,10.807985096871851,-1.7599767051458357
1751389818918695000,12.24869482421875,-1.7409879270374773,8.105845614790915,-3.366787047883868
1751389818928740900,12.258740966796875,-3.097284462815523,5.65762536419928,-4.667585568323731
1751389818938787000,12.268787109375,-5.46429884083867,2.8678111057966946,-6.011721126186847
1751389818948831700,12.278831787109375,-5.146884750038385,0.8469622812837362,-6.512434851852059
1751389818958877700,12.288877685546876,-2.6376176178097723,-0.09898995106220244,-6.276830444732308
1751389818968924000,12.298923828125,-0.6683750618934631,-0.7799731501162052,-6.098313952490687
1751389818978968800,12.30896875,0.8739403045803308,-1.424338390868902,-5.9444777279973025
1751389818989014800,12.319014892578124,1.9462270065098999,-2.046393015614152,-5.88043926332891
1751389818999061000,12.32906103515625,2.747711146688461,-2.7545640813231467,-5.891264024204015
1751389819009106000,12.33910595703125,3.348178209003806,-3.357107949912548,-5.911930964657664
1751389819019152000,12.34915185546875,3.7632472028702497,-3.872169934403896,-5.94768967578113
1751389819029197800,12.35919775390625,4.229636634129285,-4.371827429014444,-5.970576045849919
1751389819039243000,12.369242919921875,4.529123438572883,-4.69349333204031,-5.967428979995846
1751389819049289000,12.3792890625,4.633656410714984,-4.7754491461932655,-6.052949793154001
1751389819059335000,12.3893349609375,4.570202467936277,-4.369832455804944,-6.354971669033169
1751389819069379800,12.3993798828125,4.194506868559122,-3.5681969244569536,-6.552832913213968
1751389819079425800,12.40942578125,3.8605128143578766,-2.853810052973032,-6.629290129950642
1751389819089471700,12.4194716796875,3.6959821773707864,-2.0257482869923114,-6.428652991315722
1751389819099517700,12.429517578125,3.3966090624347327,-1.114371108943224,-5.854281908765435
1751389819109563000,12.43956298828125,2.686632408608496,-0.4064432043403387,-5.3932934597671025
1751389819119608800,12.44960888671875,1.74162169489637,0.36136779881715775,-4.9641363193154335
1751389819129654800,12.45965478515625,0.5834225501425564,1.3581190750300884,-4.3370548063188785
1751389819139700000,12.469699951171876,-0.4648486315578222,2.62833424115777,-2.978212677711248
1751389819149746000,12.479745849609374,-1.5013494420960545,3.336165699648857,-0.528909892579913
1751389819159791900,12.4897919921875,-2.669714883816242,2.906552047601342,1.8588918374061583
1751389819169837000,12.499837158203125,-2.9366566784858703,2.592932088387012,3.4269045397162436
1751389819179883000,12.509883056640625,-2.8848803140193224,2.7596985216021537,5.097123232525587
1751389819189928700,12.5199287109375,-2.996311228981614,3.4933097335159777,7.293661801421642
1751389819199974000,12.529973876953125,-2.940385928142071,4.236764294052124,9.08261734829247
1751389819210019800,12.540019775390626,-2.7741864811599255,4.116859565255045,9.704698276522755
1751389819220065800,12.550065673828126,-2.443876814559847,2.6252187394857405,8.86510155557096
1751389819230111000,12.560111083984374,-1.8019317866913973,0.43413902051746844,6.647219169872999
1751389819240157000,12.570156982421874,-0.6278355462342501,-1.9388965174913406,3.6141730782121417
1751389819250203000,12.580202880859375,0.44080432362556454,-3.041192573237419,1.2403151179045437
1751389819260248000,12.590248046875,1.050496967991069,-2.7764246154755354,-0.329201559227705
1751389819270294000,12.6002939453125,1.8034557813882828,-1.384863874092698,-1.484272342827916
1751389819280340000,12.610340087890625,2.380404020950198,0.7643143932133912,-1.5070523299127816
1751389819290385000,12.620385009765625,2.127790611362457,3.4862767661392686,-0.9511872103899717
1751389819300430800,12.630430908203126,0.5922812716417014,6.9064113733291626,0.23292086712419985
1751389819310476800,12.640476806640624,0.14606602888330816,8.453279580801725,2.4333131888389588
1751389819320521700,12.650521728515624,0.44246378127038477,7.581217345052957,3.505692829748988
1751389819330568000,12.66056787109375,0.4534124607861042,5.510820938038826,2.3940251345455645
1751389819340614000,12.67061376953125,0.09602920156046747,3.2923031770467754,0.3669154960721731
1751389819350658800,12.680658935546875,-0.29331315730996427,1.3707055848807095,-1.9465490780711172
1751389819360705000,12.690705078125,-0.7297275754135102,0.11381634879410266,-3.7459716584205625
1751389819370751000,12.7007509765625,-0.8919512506324797,-0.382896909058094,-4.619741282609104
1751389819380797000,12.710796875,-0.9584107319027185,-0.9417582877874374,-4.864125793033838
1751389819390841900,12.720841796875,-0.7273889763981104,-1.7464485305309294,-4.798264204591512
1751389819400888000,12.73088818359375,0.28123627748191354,-2.4740841751664875,-4.53177833699584
1751389819410934000,12.74093408203125,1.3208172261178492,-2.7379771036595106,-4.367361681777239
1751389819420978700,12.750978759765625,2.02468796428442,-2.262336444452405,-4.164257860767841
