time,seconds_elapsed,z,y,x
1751389806688134000,0.0181337890625,-0.1963348388671875,0.9266815185546875,0.2761688232421875
1751389806698178800,0.0281787109375,-0.18060302734375,0.9317169189453125,0.2726593017578125
1751389806708224800,0.038224853515625,-0.17742919921875,0.9336395263671875,0.2718353271484375
1751389806718270000,0.04827001953125,-0.143585205078125,0.9321441650390625,0.2962188720703125
1751389806728316000,0.05831591796875,-0.112152099609375,0.9363555908203125,0.31689453125
1751389806738360800,0.06836083984375,-0.0924530029296875,0.931396484375,0.331512451171875
1751389806748406800,0.07840673828125,-0.0766143798828125,0.9154815673828125,0.3498077392578125
1751389806758452000,0.088451904296875,-0.070892333984375,0.9131317138671875,0.37005615234375
1751389806768498000,0.098497802734375,-0.0741729736328125,0.9141998291015625,0.3694915771484375
1751389806778543900,0.1085439453125,-0.090576171875,0.9315338134765625,0.3662109375
1751389806788589000,0.118589111328125,-0.153167724609375,0.9578857421875,0.34552001953125
1751389806798634800,0.128634765625,-0.201995849609375,0.9824981689453125,0.348388671875
1751389806808680000,0.138679931640625,-0.222747802734375,0.987640380859375,0.3197479248046875
1751389806818726000,0.148725830078125,-0.2002410888671875,0.96844482421875,0.301116943359375
1751389806828770800,0.158770751953125,-0.162109375,0.944183349609375,0.300506591796875
1751389806838816800,0.168816650390625,-0.13677978515625,0.9155120849609375,0.2991180419921875
1751389806848862000,0.178862060546875,-0.1060638427734375,0.8926849365234375,0.3017730712890625
1751389806858908000,0.188907958984375,-0.1027679443359375,0.885498046875,0.31329345703125
1751389806868953000,0.198953125,-0.101043701171875,0.885650634765625,0.314483642578125
1751389806878998000,0.208998046875,-0.10821533203125,0.90826416015625,0.31103515625
1751389806889044000,0.2190439453125,-0.112548828125,0.9290313720703125,0.326324462890625
1751389806899089200,0.229089111328125,-0.104583740234375,0.94696044921875,0.372894287109375
1751389806909135000,0.239135009765625,-0.0892181396484375,0.9368438720703125,0.4037933349609375
1751389806919180000,0.249179931640625,-0.06927490234375,0.9114990234375,0.402008056640625
1751389806929226000,0.25922607421875,-0.0527801513671875,0.90606689453125,0.3677215576171875
1751389806939271000,0.26927099609375,-0.04034423828125,0.9183502197265625,0.268157958984375
1751389806949316900,0.27931689453125,-0.045684814453125,0.9188995361328125,0.2885589599609375
1751389806959362000,0.289362060546875,-0.056396484375,0.8648681640625,0.371307373046875
1751389806969408000,0.299407958984375,-0.071441650390625,0.865447998046875,0.2365570068359375
1751389806979453200,0.309453125,-0.080291748046875,0.8833770751953125,0.19757080078125
1751389806989499100,0.3194990234375,-0.077239990234375,0.902557373046875,0.2245025634765625
1751389806999545000,0.329545166015625,-0.06219482421875,0.9060516357421875,0.2585296630859375
1751389807009590000,0.339590087890625,-0.0532989501953125,0.8897247314453125,0.2364501953125
1751389807019636000,0.349635986328125,-0.0631866455078125,0.830810546875,0.1085968017578125
1751389807029681000,0.359680908203125,-0.0803985595703125,0.810211181640625,0.0041046142578125
1751389807039726800,0.369726806640625,-0.081329345703125,0.8041534423828125,-0.036346435546875
1751389807049772000,0.37977197265625,-0.0154266357421875,0.706024169921875,-0.068328857421875
1751389807059818000,0.38981787109375,-0.03192138671875,0.7500762939453125,-0.054901123046875
1751389807069863200,0.39986328125,-0.0909576416015625,0.8714447021484375,-0.0532379150390625
1751389807079909000,0.4099091796875,-0.1136627197265625,0.99041748046875,-0.0361175537109375
1751389807089953800,0.419953857421875,-0.0985565185546875,1.096588134765625,-0.0116729736328125
1751389807100000000,0.43,-0.0506744384765625,1.1332244873046875,-0.017791748046875
1751389807110045000,0.440044921875,-0.0377960205078125,1.1533050537109375,0.0103912353515625
1751389807120091000,0.4500908203125,-0.0526123046875,1.274200439453125,0.1126708984375
1751389807130136000,0.460135986328125,-0.0761566162109375,1.3572235107421875,0.2286224365234375
1751389807140182000,0.47018212890625,-0.1570892333984375,1.432830810546875,0.3422088623046875
1751389807150228000,0.48022802734375,-0.1656646728515625,1.3503875732421875,0.3736114501953125
1751389807160273200,0.490273193359375,-0.170379638671875,1.226043701171875,0.3634033203125
1751389807170319000,0.500319091796875,-0.1641082763671875,1.0935821533203125,0.3244171142578125
1751389807180363800,0.51036376953125,-0.145721435546875,0.9965972900390625,0.2968292236328125
1751389807190410000,0.520409912109375,-0.1295928955078125,0.937774658203125,0.291290283203125
1751389807200455000,0.530454833984375,-0.0773162841796875,0.891021728515625,0.295684814453125
1751389807210500900,0.5405009765625,0.001129150390625,0.8546295166015625,0.2990264892578125
1751389807220546000,0.550546142578125,0.0746307373046875,0.8052215576171875,0.2808990478515625
1751389807230592000,0.560592041015625,0.1393890380859375,0.72705078125,0.2109375
1751389807240637200,0.57063720703125,0.13189697265625,0.6561737060546875,0.130889892578125
1751389807250683100,0.58068310546875,0.06451416015625,0.6252593994140625,0.095703125
1751389807260729000,0.59072900390625,0.0250701904296875,0.6529998779296875,0.09423828125
1751389807270774000,0.60077392578125,0.0007476806640625,0.690399169921875,0.0836639404296875
1751389807280820000,0.610820068359375,0.0012054443359375,0.7253265380859375,0.1113433837890625
1751389807290865000,0.620864990234375,0.00927734375,0.7602081298828125,0.155303955078125
1751389807300910800,0.630910888671875,0.0266571044921875,0.8003692626953125,0.1960906982421875
1751389807310956000,0.6409560546875,0.0499114990234375,0.83673095703125,0.248504638671875
1751389807321002000,0.651001953125,0.0748291015625,0.880706787109375,0.330841064453125
1751389807331047200,0.661047119140625,0.1038665771484375,0.9228973388671875,0.43438720703125
1751389807341093000,0.671093017578125,0.13323974609375,0.9577178955078125,0.51763916015625
1751389807351138000,0.681137939453125,0.165069580078125,0.98773193359375,0.5952606201171875
1751389807361184000,0.69118408203125,0.19744873046875,1.0142059326171875,0.6354217529296875
1751389807371229000,0.70122900390625,0.208221435546875,1.0302581787109375,0.6681671142578125
1751389807381275000,0.71127490234375,0.1904296875,1.027130126953125,0.68316650390625
1751389807391320800,0.72132080078125,0.1567535400390625,1.002899169921875,0.6799774169921875
1751389807401366000,0.731365966796875,0.13116455078125,0.949188232421875,0.659820556640625
1751389807411412000,0.741411865234375,0.1241455078125,0.8935089111328125,0.6404876708984375
1751389807421457200,0.75145703125,0.0930328369140625,0.8542022705078125,0.6399688720703125
1751389807431503000,0.761503173828125,0.03765869140625,0.8432769775390625,0.6259002685546875
1751389807441548000,0.771548095703125,-0.0264739990234375,0.8371124267578125,0.5962677001953125
1751389807451594200,0.78159423828125,-0.05767822265625,0.81304931640625,0.5913543701171875
1751389807461639000,0.791638916015625,-0.0452880859375,0.7821807861328125,0.5882720947265625
1751389807471684900,0.801684814453125,-0.02191162109375,0.7603759765625,0.55560302734375
1751389807481730000,0.81172998046875,-0.0143280029296875,0.7764434814453125,0.554931640625
1751389807491776000,0.82177587890625,-0.006561279296875,0.8174285888671875,0.5587158203125
1751389807501821000,0.831821044921875,-0.01910400390625,0.8605804443359375,0.5670013427734375
1751389807511867100,0.8418671875,-0.0361328125,0.8856048583984375,0.5635528564453125
1751389807521913000,0.8519130859375,-0.0423736572265625,0.896484375,0.559906005859375
1751389807531958000,0.8619580078125,-0.0355377197265625,0.902801513671875,0.5664215087890625
1751389807542004200,0.872004150390625,-0.018463134765625,0.904937744140625,0.568939208984375
1751389807552049000,0.882048828125,0.0079345703125,0.9077606201171875,0.5652008056640625
1751389807562094800,0.8920947265625,0.03997802734375,0.91070556640625,0.55096435546875
1751389807572140000,0.90214013671875,0.0652923583984375,0.912933349609375,0.5332183837890625
1751389807582186000,0.91218603515625,0.08502197265625,0.9146728515625,0.5147247314453125
1751389807592231000,0.92223095703125,0.1044464111328125,0.910369873046875,0.4971466064453125
1751389807602277000,0.932277099609375,0.1199493408203125,0.9056243896484375,0.484588623046875
1751389807612322000,0.942322021484375,0.1246490478515625,0.904632568359375,0.486846923828125
1751389807622368000,0.952367919921875,0.1299896240234375,0.9066619873046875,0.502044677734375
1751389807632414200,0.962414306640625,0.1345977783203125,0.9137115478515625,0.5319671630859375
1751389807642459000,0.972458984375,0.139404296875,0.9306488037109375,0.576141357421875
1751389807652504800,0.9825048828125,0.140289306640625,0.951934814453125,0.6199798583984375
1751389807662550000,0.992550048828125,0.134765625,0.9739837646484375,0.6487579345703125
1751389807672596000,1.002595947265625,0.1207122802734375,1.000274658203125,0.6714019775390625
1751389807682641200,1.01264111328125,0.1019744873046875,1.0185699462890625,0.6868896484375
1751389807692687000,1.02268701171875,0.082122802734375,1.0218353271484375,0.6969146728515625
1751389807702732000,1.03273193359375,0.065032958984375,1.0203704833984375,0.71630859375
1751389807712778000,1.042778076171875,0.047698974609375,1.02447509765625,0.7459259033203125
1751389807722823000,1.052822998046875,0.040740966796875,1.026153564453125,0.7625579833984375
1751389807732868900,1.062868896484375,0.0452728271484375,1.0195159912109375,0.753021240234375
1751389807742914800,1.072914794921875,0.0598297119140625,0.9950103759765625,0.727996826171875
1751389807752960000,1.0829599609375,0.0826263427734375,0.9511871337890625,0.71331787109375
1751389807763006000,1.093005859375,0.1034393310546875,0.8961334228515625,0.7126007080078125
1751389807773051100,1.103051025390625,0.0726165771484375,0.8207244873046875,0.7277679443359375
1751389807783097000,1.11309716796875,-0.324737548828125,0.6059722900390625,0.7320709228515625
1751389807793142000,1.12314208984375,-0.7916412353515625,0.4040374755859375,0.620880126953125
1751389807803188000,1.13318798828125,-0.3173675537109375,0.581329345703125,0.5221405029296875
1751389807813233000,1.14323291015625,0.0013275146484375,0.7521209716796875,0.5342864990234375
1751389807823278800,1.15327880859375,0.0110626220703125,0.830230712890625,0.5799407958984375
1751389807833324000,1.163323974609375,-0.01727294921875,0.8879852294921875,0.6166534423828125
1751389807843370000,1.173369873046875,-0.0301971435546875,0.94903564453125,0.628265380859375
1751389807853416000,1.183416015625,-0.049468994140625,1.0103607177734375,0.6212005615234375
1751389807863461000,1.193461181640625,-0.0616912841796875,1.0491790771484375,0.6069793701171875
1751389807873507600,1.203507568359375,-0.0200042724609375,1.0776214599609375,0.6027679443359375
1751389807883552500,1.213552490234375,0.02392578125,1.1092376708984375,0.6096954345703125
1751389807893598500,1.223598388671875,0.0533599853515625,1.1302947998046875,0.625732421875
1751389807903643600,1.2336435546875,0.0252685546875,1.124114990234375,0.6533355712890625
1751389807913689600,1.243689697265625,-0.075042724609375,1.09197998046875,0.663787841796875
1751389807923734500,1.253734619140625,-0.126800537109375,1.0667266845703125,0.6339874267578125
1751389807933780500,1.263780517578125,-0.0868377685546875,1.0628204345703125,0.6052703857421875
1751389807943825400,1.273825439453125,-0.0418243408203125,1.0610504150390625,0.604644775390625
1751389807953871600,1.28387158203125,-0.043212890625,1.0507659912109375,0.6302947998046875
1751389807963917600,1.29391748046875,-0.0381927490234375,1.0286865234375,0.6481170654296875
1751389807973962500,1.30396240234375,-0.0224761962890625,1.0018310546875,0.6417694091796875
1751389807984008400,1.314008544921875,-0.00848388671875,0.96258544921875,0.6192169189453125
1751389807994053600,1.3240537109375,-0.0130157470703125,0.9221649169921875,0.5966644287109375
1751389808004099600,1.334099609375,-0.018798828125,0.8672332763671875,0.5687255859375
1751389808014144500,1.34414453125,-0.0022125244140625,0.811370849609375,0.5331268310546875
1751389808024190500,1.3541904296875,0.012542724609375,0.7640228271484375,0.5008544921875
1751389808034235400,1.3642353515625,0.0120697021484375,0.7161102294921875,0.46185302734375
1751389808044281600,1.374281494140625,-0.0011749267578125,0.6747283935546875,0.417724609375
1751389808054326500,1.384326416015625,-0.0417633056640625,0.630035400390625,0.364654541015625
1751389808064372500,1.39437255859375,-0.078643798828125,0.5892181396484375,0.308624267578125
1751389808074418400,1.40441845703125,-0.0787353515625,0.556884765625,0.2578277587890625
1751389808084463600,1.414463623046875,-0.0529327392578125,0.5275421142578125,0.22235107421875
1751389808094509600,1.424509521484375,-0.001922607421875,0.508056640625,0.1979522705078125
1751389808104554500,1.434554443359375,0.0507965087890625,0.4876556396484375,0.177093505859375
1751389808114600400,1.444600341796875,0.0769195556640625,0.472625732421875,0.1568756103515625
1751389808124645400,1.454645263671875,0.083709716796875,0.4552764892578125,0.1428680419921875
1751389808134691600,1.464691650390625,0.0785980224609375,0.4331207275390625,0.1310577392578125
1751389808144736500,1.474736572265625,0.06500244140625,0.4117431640625,0.1279296875
1751389808154782500,1.484782470703125,0.039825439453125,0.400299072265625,0.145263671875
1751389808164828400,1.494828369140625,0.0118865966796875,0.3997802734375,0.1841278076171875
1751389808174873600,1.50487353515625,-0.0247802734375,0.41937255859375,0.256805419921875
1751389808184919600,1.51491943359375,-0.0830230712890625,0.4796905517578125,0.38311767578125
1751389808194964500,1.524964599609375,-0.155120849609375,0.55255126953125,0.5543365478515625
1751389808205010400,1.535010498046875,-0.2218170166015625,0.6121826171875,0.75592041015625
1751389808215055400,1.545055419921875,-0.2349853515625,0.6506500244140625,0.933868408203125
1751389808225101600,1.5551015625,-0.2040557861328125,0.6954803466796875,1.052825927734375
1751389808235146500,1.565146484375,-0.2101287841796875,0.7628173828125,1.178680419921875
1751389808245192400,1.5751923828125,-0.2760467529296875,0.8205108642578125,1.3513946533203125
1751389808255238700,1.58523876953125,-0.3867950439453125,0.8509521484375,1.5183563232421875
1751389808265283600,1.59528369140625,-0.482269287109375,0.86541748046875,1.6417694091796875
1751389808275329500,1.60532958984375,-0.558807373046875,0.88629150390625,1.709320068359375
1751389808285374500,1.61537451171875,-0.5921478271484375,0.8660125732421875,1.6934661865234375
1751389808295420400,1.62542041015625,-0.545074462890625,0.81072998046875,1.55877685546875
1751389808305465300,1.63546533203125,-0.4232025146484375,0.847747802734375,1.2846221923828125
1751389808315511600,1.645511474609375,-0.25762939453125,1.0606536865234375,0.94268798828125
1751389808325556500,1.655556396484375,-0.11126708984375,1.266632080078125,0.81939697265625
1751389808335602400,1.6656025390625,0.01568603515625,1.389892578125,0.7923126220703125
1751389808345648600,1.675648681640625,0.1107635498046875,1.4525909423828125,0.772857666015625
1751389808355693600,1.685693603515625,0.202178955078125,1.3946380615234375,0.731964111328125
1751389808365739500,1.695739501953125,0.2638397216796875,1.2158203125,0.6717681884765625
1751389808375784400,1.705784423828125,0.2738037109375,1.01641845703125,0.545166015625
1751389808385830400,1.715830322265625,0.247711181640625,0.8468017578125,0.384857177734375
1751389808395875300,1.725875244140625,0.2041168212890625,0.7183685302734375,0.2427520751953125
1751389808405921500,1.735921630859375,0.0135040283203125,0.631805419921875,0.0419464111328125
1751389808415966500,1.745966552734375,-0.2363739013671875,0.5947418212890625,-0.1643524169921875
1751389808426012400,1.756012451171875,-0.20556640625,0.6337890625,-0.14727783203125
1751389808436058600,1.76605859375,-0.1008453369140625,0.713104248046875,-0.0521240234375
1751389808446103600,1.776103515625,0.0057373046875,0.783843994140625,0.0034027099609375
1751389808456149500,1.7861494140625,0.1113128662109375,0.853485107421875,0.0254974365234375
1751389808466194400,1.7961943359375,0.171875,0.9292755126953125,0.049163818359375
1751389808476240400,1.806240478515625,0.1801605224609375,0.9965362548828125,0.0845184326171875
1751389808486285600,1.81628564453125,0.192718505859375,1.05450439453125,0.1348419189453125
1751389808496331500,1.82633154296875,0.2159881591796875,1.0936279296875,0.2016143798828125
1751389808506376400,1.83637646484375,0.2233734130859375,1.1069183349609375,0.2768402099609375
1751389808516422400,1.84642236328125,0.20538330078125,1.0905303955078125,0.3390350341796875
1751389808526468600,1.856468505859375,0.175750732421875,1.05914306640625,0.3869171142578125
1751389808536513500,1.866513427734375,0.1390533447265625,1.022613525390625,0.4332427978515625
1751389808546559500,1.8765595703125,0.070037841796875,0.98388671875,0.5316314697265625
1751389808556604700,1.886604736328125,0.034088134765625,0.941131591796875,0.5906524658203125
1751389808566650400,1.896650390625,0.049652099609375,0.9027862548828125,0.5715179443359375
1751389808576695600,1.906695556640625,0.071624755859375,0.876739501953125,0.531890869140625
1751389808586741500,1.916741455078125,0.078765869140625,0.848541259765625,0.5021209716796875
1751389808596787500,1.926787353515625,0.07086181640625,0.822906494140625,0.49481201171875
1751389808606832400,1.936832275390625,0.0630645751953125,0.7962646484375,0.5030059814453125
1751389808616878600,1.946878662109375,0.0583953857421875,0.7680816650390625,0.529541015625
1751389808626923500,1.956923583984375,0.0489959716796875,0.7454071044921875,0.5615234375
1751389808636969500,1.966969482421875,0.043060302734375,0.726226806640625,0.575836181640625
1751389808647014700,1.9770146484375,0.0372314453125,0.7104949951171875,0.57232666015625
1751389808657060600,1.987060546875,0.037811279296875,0.7014312744140625,0.55560302734375
1751389808667105500,1.99710546875,0.0382080078125,0.6964111328125,0.537750244140625
1751389808677151500,2.0071513671875,0.036956787109375,0.6894989013671875,0.5243377685546875
1751389808687197400,2.017197509765625,0.0404052734375,0.6846160888671875,0.505584716796875
1751389808697242600,2.02724267578125,0.05340576171875,0.6840667724609375,0.482330322265625
1751389808707288600,2.03728857421875,0.060394287109375,0.679107666015625,0.4659423828125
1751389808717333500,2.04733349609375,0.068511962890625,0.67413330078125,0.4545440673828125
1751389808727379500,2.05737939453125,0.0841522216796875,0.671630859375,0.4480743408203125
1751389808737424600,2.067424560546875,0.1409912109375,0.6774749755859375,0.4325714111328125
1751389808747470600,2.077470703125,0.2143096923828125,0.69970703125,0.42535400390625
1751389808757515500,2.087515625,0.161590576171875,0.7437286376953125,0.4494476318359375
1751389808767561500,2.0975615234375,0.0697784423828125,0.7835235595703125,0.460906982421875
1751389808777607400,2.107607421875,0.0506439208984375,0.811492919921875,0.468017578125
1751389808787652600,2.117652587890625,0.0266876220703125,0.8291168212890625,0.4842071533203125
1751389808797698600,2.127698486328125,0.02191162109375,0.8447418212890625,0.4989776611328125
1751389808807743500,2.137743408203125,0.0447998046875,0.8658447265625,0.50201416015625
1751389808817789400,2.14778955078125,0.066375732421875,0.8998260498046875,0.5145111083984375
1751389808827834600,2.157834716796875,0.079193115234375,0.940704345703125,0.544403076171875
1751389808837880600,2.167880615234375,0.0780029296875,0.9763336181640625,0.5900421142578125
1751389808847926500,2.177926513671875,0.06939697265625,1.0006256103515625,0.6581573486328125
1751389808857971500,2.187971435546875,0.06793212890625,1.0171356201171875,0.727447509765625
1751389808868017400,2.198017333984375,0.0798797607421875,1.022247314453125,0.7895355224609375
1751389808878061600,2.2080615234375,0.0872802734375,1.0166168212890625,0.844207763671875
1751389808888107500,2.218107421875,0.08355712890625,1.008056640625,0.8892974853515625
1751389808898152700,2.228152587890625,0.07611083984375,1.0206451416015625,0.9363250732421875
1751389808908198700,2.23819873046875,0.06097412109375,1.0504608154296875,0.9901885986328125
1751389808918244600,2.24824462890625,0.0524139404296875,1.071075439453125,1.033843994140625
1751389808928289500,2.25828955078125,0.0468902587890625,1.0632476806640625,1.0428009033203125
1751389808938335700,2.268335693359375,0.0389556884765625,1.033172607421875,1.0160369873046875
1751389808948380700,2.278380615234375,0.0394439697265625,0.997802734375,0.9946136474609375
1751389808958426600,2.288426513671875,0.058990478515625,0.93670654296875,0.9615631103515625
1751389808968471600,2.298471435546875,0.08807373046875,0.84765625,0.906341552734375
1751389808978517500,2.308517578125,0.10968017578125,0.76373291015625,0.830657958984375
1751389808988563500,2.3185634765625,0.10406494140625,0.71441650390625,0.7468414306640625
1751389808998608600,2.328608642578125,0.088958740234375,0.7051849365234375,0.6793212890625
1751389809008654600,2.338654541015625,0.052093505859375,0.7362213134765625,0.6195526123046875
1751389809018699500,2.348699462890625,-0.014923095703125,0.8312225341796875,0.576080322265625
1751389809028745700,2.358745849609375,-0.0607147216796875,0.9474029541015625,0.55267333984375
1751389809038790700,2.368790771484375,-0.0697479248046875,1.0550689697265625,0.5338134765625
1751389809048836600,2.378836669921875,-0.0998382568359375,1.158843994140625,0.514923095703125
1751389809058882800,2.3888828125,-0.22393798828125,1.295806884765625,0.5162811279296875
1751389809068927500,2.398927490234375,-0.5096893310546875,1.47662353515625,0.53948974609375
1751389809078973400,2.408973388671875,-0.55963134765625,1.59271240234375,0.591522216796875
1751389809089018600,2.4190185546875,-0.4689483642578125,1.6698150634765625,0.63958740234375
1751389809099064600,2.429064697265625,-0.371124267578125,1.7265777587890625,0.6757354736328125
1751389809109109800,2.43910986328125,-0.1960906982421875,1.7090911865234375,0.6839141845703125
1751389809119155700,2.44915576171875,-0.0369720458984375,1.6240386962890625,0.648773193359375
1751389809129201700,2.45920166015625,0.0883026123046875,1.471282958984375,0.6048736572265625
1751389809139246600,2.46924658203125,0.218658447265625,1.307891845703125,0.5594635009765625
1751389809149292800,2.479292724609375,0.3105621337890625,1.16015625,0.4849700927734375
1751389809159337500,2.48933740234375,0.3046417236328125,1.006134033203125,0.4093475341796875
1751389809169383400,2.499383544921875,0.25341796875,0.8752899169921875,0.373138427734375
1751389809179428600,2.5094287109375,0.313507080078125,0.762939453125,0.34130859375
1751389809189474600,2.519474609375,0.32421875,0.6464996337890625,0.295135498046875
1751389809199520500,2.5295205078125,0.2720489501953125,0.542510986328125,0.255645751953125
1751389809209565700,2.539565673828125,0.245330810546875,0.4598236083984375,0.2173004150390625
1751389809219611600,2.549611572265625,0.20806884765625,0.3980865478515625,0.168426513671875
1751389809229656600,2.559656494140625,0.1596527099609375,0.3474273681640625,0.1213836669921875
1751389809239702800,2.569702880859375,0.119232177734375,0.3191375732421875,0.0742034912109375
1751389809249747700,2.579747802734375,0.0936431884765625,0.3232879638671875,0.02825927734375
1751389809259793400,2.58979345703125,0.080596923828125,0.3496856689453125,-0.00347900390625
1751389809269839600,2.599839599609375,0.0786590576171875,0.3838348388671875,-0.018829345703125
1751389809279884500,2.609884521484375,0.091156005859375,0.411712646484375,-0.0249786376953125
1751389809289930500,2.619930419921875,0.1096343994140625,0.4273223876953125,-0.033355712890625
1751389809299975700,2.6299755859375,0.104461669921875,0.4304656982421875,-0.0447235107421875
1751389809310021600,2.640021728515625,0.0899658203125,0.4273681640625,-0.05157470703125
1751389809320066800,2.65006689453125,0.05975341796875,0.422332763671875,-0.05999755859375
1751389809330112800,2.66011279296875,-0.002532958984375,0.433868408203125,-0.0527496337890625
1751389809340158700,2.67015869140625,-0.09222412109375,0.476226806640625,-0.022918701171875
1751389809350203600,2.68020361328125,-0.2512054443359375,0.5881500244140625,0.025146484375
1751389809360249600,2.69024951171875,-0.5764923095703125,0.8207244873046875,0.1166229248046875
1751389809370294500,2.70029443359375,-0.8076934814453125,1.02178955078125,0.554718017578125
1751389809380340500,2.710340576171875,-0.552032470703125,0.9546051025390625,1.0009002685546875
1751389809390385700,2.7203857421875,-0.342803955078125,1.0492095947265625,1.2340850830078125
1751389809400431600,2.730431640625,-0.4041595458984375,1.265655517578125,1.6337890625
1751389809410477600,2.7404775390625,-0.271881103515625,1.4425201416015625,1.9339141845703125
1751389809420522800,2.750522705078125,-0.121795654296875,1.529083251953125,2.042083740234375
1751389809430568700,2.760568603515625,-0.0806732177734375,1.49267578125,2.104736328125
1751389809440613600,2.770613525390625,-0.0551910400390625,1.2325439453125,1.8543548583984375
1751389809450659800,2.780659912109375,-0.0990447998046875,0.8635406494140625,1.262481689453125
1751389809460705500,2.79070556640625,-0.1234283447265625,0.820404052734375,0.7082672119140625
1751389809470750500,2.80075048828125,-0.0619049072265625,1.077667236328125,0.51531982421875
1751389809480796700,2.810796630859375,-0.016571044921875,1.3445587158203125,0.476470947265625
1751389809490841600,2.820841552734375,-0.0782928466796875,1.5773773193359375,0.4369354248046875
1751389809500887600,2.830887451171875,-0.096923828125,1.6646575927734375,0.4379730224609375
1751389809510932700,2.8409326171875,-0.063079833984375,1.5175933837890625,0.46966552734375
1751389809520978700,2.850978759765625,0.0051116943359375,1.2564544677734375,0.4141845703125
1751389809531024600,2.861024658203125,-0.0028076171875,1.02874755859375,0.3310699462890625
1751389809541069800,2.87106982421875,-0.1510467529296875,0.7596282958984375,0.278594970703125
1751389809551115800,2.88111572265625,-0.19744873046875,0.5825653076171875,0.164459228515625
1751389809561160400,2.891160400390625,-0.07330322265625,0.55853271484375,0.1049041748046875
1751389809571206700,2.90120654296875,0.04541015625,0.5673828125,0.12347412109375
1751389809581252600,2.911252685546875,0.0956878662109375,0.570404052734375,0.1275634765625
1751389809591297500,2.921297607421875,0.1356964111328125,0.5708160400390625,0.11761474609375
1751389809601343700,2.93134375,0.163421630859375,0.5650482177734375,0.118988037109375
1751389809611388700,2.941388671875,0.19171142578125,0.58221435546875,0.132232666015625
1751389809621434600,2.9514345703125,0.199920654296875,0.645050048828125,0.1564788818359375
1751389809631479800,2.961479736328125,0.2033538818359375,0.7598724365234375,0.2024383544921875
1751389809641525800,2.97152587890625,0.20465087890625,0.892822265625,0.2523193359375
1751389809651571700,2.98157177734375,0.22027587890625,1.0196075439453125,0.2953948974609375
1751389809661616600,2.99161669921875,0.23565673828125,1.12774658203125,0.344024658203125
1751389809671662600,3.00166259765625,0.2416229248046875,1.19561767578125,0.397216796875
1751389809681707500,3.01170751953125,0.2093963623046875,1.2060394287109375,0.4442291259765625
1751389809691753700,3.021753662109375,0.147125244140625,1.1592864990234375,0.465087890625
1751389809701798700,3.031798583984375,0.073699951171875,1.0825958251953125,0.483489990234375
1751389809711844600,3.0418447265625,0.0040283203125,0.9816131591796875,0.500823974609375
1751389809721890600,3.051890625,-0.01171875,0.876953125,0.4738006591796875
1751389809731935700,3.061935791015625,0.01788330078125,0.802032470703125,0.4316253662109375
1751389809741981700,3.071981689453125,0.045928955078125,0.743865966796875,0.409088134765625
1751389809752026600,3.082026611328125,0.05548095703125,0.6938018798828125,0.400970458984375
1751389809762072600,3.092072509765625,0.054443359375,0.6520233154296875,0.39752197265625
1751389809772118500,3.102118408203125,0.04937744140625,0.6264495849609375,0.404693603515625
1751389809782163700,3.112163818359375,0.047027587890625,0.60772705078125,0.413909912109375
1751389809792209700,3.122209716796875,0.04766845703125,0.5985870361328125,0.4143829345703125
1751389809802254600,3.132254638671875,0.0478057861328125,0.60205078125,0.409912109375
1751389809812300800,3.14230078125,0.0452117919921875,0.610382080078125,0.408294677734375
1751389809822345700,3.152345703125,0.050384521484375,0.6207733154296875,0.415557861328125
1751389809832391700,3.1623916015625,0.06451416015625,0.639312744140625,0.434600830078125
1751389809842437600,3.172437744140625,0.063995361328125,0.66864013671875,0.4580535888671875
1751389809852482600,3.182482666015625,0.0526123046875,0.6971893310546875,0.46826171875
1751389809862528500,3.192528564453125,0.0800018310546875,0.7209320068359375,0.460357666015625
1751389809872573700,3.20257373046875,0.1457366943359375,0.7506103515625,0.4471435546875
1751389809882620400,3.212620361328125,0.104278564453125,0.795196533203125,0.4457550048828125
1751389809892666400,3.222666259765625,0.0277099609375,0.87127685546875,0.468719482421875
1751389809902711300,3.232711181640625,0.014312744140625,0.94927978515625,0.5251007080078125
1751389809912757500,3.242757568359375,0.0184783935546875,1.008758544921875,0.601654052734375
1751389809922802200,3.25280224609375,0.0327911376953125,1.0530242919921875,0.65985107421875
1751389809932848000,3.26284814453125,0.0442047119140625,1.0955352783203125,0.69110107421875
1751389809942893300,3.272893310546875,0.0568389892578125,1.1298065185546875,0.7157745361328125
1751389809952939300,3.282939208984375,0.0646209716796875,1.154876708984375,0.7371978759765625
1751389809962985200,3.292985107421875,0.053466796875,1.160614013671875,0.7811126708984375
1751389809973030400,3.303030517578125,0.0254974365234375,1.116455078125,0.84002685546875
1751389809983076400,3.313076416015625,0.0157318115234375,1.0261993408203125,0.8708953857421875
1751389809993121300,3.323121337890625,0.033050537109375,0.9347076416015625,0.87030029296875
1751389810003167500,3.33316748046875,0.049224853515625,0.850921630859375,0.8504486083984375
1751389810013213400,3.34321337890625,0.05841064453125,0.77667236328125,0.8237762451171875
1751389810023258000,3.353258056640625,0.0402069091796875,0.7510528564453125,0.8064422607421875
1751389810033304300,3.36330419921875,0.0039520263671875,0.76824951171875,0.8185882568359375
1751389810043349200,3.373349365234375,-0.02093505859375,0.77862548828125,0.8490753173828125
1751389810053395200,3.383395263671875,-0.0213470458984375,0.771026611328125,0.8823089599609375
1751389810063441200,3.393441162109375,0.0128173828125,0.7441864013671875,0.9246368408203125
1751389810073486300,3.403486328125,0.066650390625,0.702880859375,0.9742584228515625
1751389810083532300,3.4135322265625,0.0859375,0.678741455078125,0.9756622314453125
1751389810093577500,3.423577392578125,0.0346832275390625,0.7010040283203125,0.9037933349609375
1751389810103623400,3.43362353515625,-0.0305633544921875,0.7638702392578125,0.83966064453125
1751389810113669400,3.44366943359375,-0.0662689208984375,0.8567962646484375,0.80059814453125
1751389810123714300,3.45371435546875,-0.059661865234375,0.9741973876953125,0.762908935546875
1751389810133760300,3.46376025390625,-0.0475006103515625,1.1074371337890625,0.7343292236328125
1751389810143805200,3.47380517578125,-0.031585693359375,1.2432708740234375,0.7179107666015625
1751389810153851400,3.483851318359375,-0.0146331787109375,1.392974853515625,0.716156005859375
1751389810163896300,3.493896240234375,0.0089111328125,1.540313720703125,0.737152099609375
1751389810173942300,3.5039423828125,0.0246734619140625,1.6783599853515625,0.7584381103515625
1751389810183988200,3.51398828125,0.034332275390625,1.835845947265625,0.79180908203125
1751389810194033400,3.524033447265625,0.065399169921875,1.9999542236328125,0.8049163818359375
1751389810204079400,3.534079345703125,-0.0353851318359375,2.12774658203125,0.7556610107421875
1751389810214124300,3.544124267578125,-0.2543487548828125,2.1175994873046875,0.609771728515625
1751389810224170200,3.554170166015625,-0.3591766357421875,1.927154541015625,0.441009521484375
1751389810234216200,3.56421630859375,-0.323944091796875,1.651397705078125,0.3112640380859375
1751389810244261400,3.574261474609375,-0.233642578125,1.398101806640625,0.23675537109375
1751389810254307300,3.584307373046875,-0.1134490966796875,1.1799163818359375,0.2164306640625
1751389810264352300,3.594352294921875,-0.0216064453125,0.9964752197265625,0.201812744140625
1751389810274398200,3.604398193359375,-0.016143798828125,0.8173370361328125,0.193084716796875
1751389810284443400,3.614443359375,0.00762939453125,0.66119384765625,0.1993865966796875
1751389810294489300,3.6244892578125,0.07464599609375,0.5358428955078125,0.188140869140625
1751389810304535300,3.634535400390625,0.14306640625,0.4502716064453125,0.1823577880859375
1751389810314580200,3.644580322265625,0.20751953125,0.390625,0.164703369140625
1751389810324626200,3.654626220703125,0.236724853515625,0.33453369140625,0.1366424560546875
1751389810334671400,3.66467138671875,0.2519683837890625,0.2787017822265625,0.107574462890625
1751389810344717300,3.67471728515625,0.265960693359375,0.2271270751953125,0.0753326416015625
1751389810354763300,3.68476318359375,0.2706756591796875,0.1894683837890625,0.04119873046875
1751389810364808400,3.694808349609375,0.2699737548828125,0.162750244140625,0.0100555419921875
1751389810374854400,3.7048544921875,0.25299072265625,0.1628570556640625,-0.026885986328125
1751389810384899300,3.7148994140625,0.2224884033203125,0.19903564453125,-0.0626373291015625
1751389810394945300,3.7249453125,0.2004241943359375,0.2619781494140625,-0.0880279541015625
1751389810404991500,3.734991455078125,0.198822021484375,0.325286865234375,-0.10833740234375
1751389810415036200,3.7450361328125,0.188140869140625,0.37811279296875,-0.1178131103515625
1751389810425082000,3.75508203125,0.1508636474609375,0.430877685546875,-0.109588623046875
1751389810435127300,3.765127197265625,0.08184814453125,0.495147705078125,-0.07257080078125
1751389810445173200,3.77517333984375,-0.0153045654296875,0.5695648193359375,-0.0173797607421875
1751389810455219200,3.78521923828125,-0.1676025390625,0.677276611328125,0.0542449951171875
1751389810465264400,3.795264404296875,-0.364654541015625,0.865936279296875,0.196441650390625
1751389810475310300,3.805310302734375,-0.655120849609375,1.0830230712890625,0.5545501708984375
1751389810485355300,3.815355224609375,-0.5836181640625,1.0808258056640625,0.9697265625
1751389810495401500,3.8254013671875,-0.42193603515625,1.1690521240234375,1.2242279052734375
1751389810505447400,3.835447509765625,-0.545989990234375,1.4007110595703125,1.6597747802734375
1751389810515492000,3.8454921875,-0.540740966796875,1.5452880859375,1.9781951904296875
1751389810525538300,3.855538330078125,-0.4635772705078125,1.6379547119140625,2.0998992919921875
1751389810535583200,3.865583251953125,-0.319244384765625,1.6059112548828125,2.16357421875
1751389810545629200,3.875629150390625,-0.1563873291015625,1.319854736328125,1.951019287109375
1751389810555675400,3.88567529296875,-0.086395263671875,1.00091552734375,1.46270751953125
1751389810565720300,3.89572021484375,-0.10333251953125,1.0938262939453125,0.9662933349609375
1751389810575766300,3.905766357421875,-0.121307373046875,1.41070556640625,0.739654541015625
1751389810585811500,3.9158115234375,-0.0431671142578125,1.5909576416015625,0.7532958984375
1751389810595857400,3.925857421875,0.07171630859375,1.5516357421875,0.8331756591796875
1751389810605903400,3.9359033203125,0.2010040283203125,1.3719940185546875,0.8204345703125
1751389810615948300,3.9459482421875,0.2503662109375,1.22821044921875,0.6133270263671875
1751389810625994200,3.955994140625,0.285980224609375,1.0580291748046875,0.40966796875
1751389810636039200,3.9660390625,0.293731689453125,0.8792572021484375,0.26416015625
1751389810646085400,3.97608544921875,0.223297119140625,0.7020111083984375,0.1458740234375
1751389810656130300,3.98613037109375,-0.0191802978515625,0.4768218994140625,-0.064056396484375
1751389810666176300,3.99617626953125,0.0100555419921875,0.3979949951171875,-0.1306610107421875
1751389810676222200,4.00622216796875,0.137176513671875,0.4169464111328125,-0.0727691650390625
1751389810686267400,4.016267333984375,0.18115234375,0.422760009765625,-0.052154541015625
1751389810696313300,4.026313232421875,0.20440673828125,0.4224700927734375,-0.0507659912109375
1751389810706358300,4.036358154296875,0.2159881591796875,0.4427490234375,-0.0483551025390625
1751389810716404200,4.046404296875,0.220184326171875,0.4980926513671875,-0.025054931640625
1751389810726450200,4.0564501953125,0.2222137451171875,0.5964813232421875,0.0162506103515625
1751389810736495400,4.066495361328125,0.2181854248046875,0.7161407470703125,0.0562896728515625
1751389810746541300,4.076541259765625,0.234222412109375,0.85369873046875,0.0961761474609375
1751389810756586200,4.086586181640625,0.2570343017578125,0.995025634765625,0.1432037353515625
1751389810766632200,4.096632080078125,0.2679443359375,1.123016357421875,0.1996612548828125
1751389810776678400,4.106678466796875,0.242919921875,1.2163543701171875,0.259033203125
1751389810786723300,4.116723388671875,0.1880645751953125,1.255859375,0.3238677978515625
1751389810796769300,4.126769287109375,0.124603271484375,1.2518463134765625,0.3869476318359375
1751389810806814200,4.136814208984375,0.0561065673828125,1.218963623046875,0.4475555419921875
1751389810816860200,4.146860107421875,-0.069427490234375,1.17535400390625,0.5596771240234375
1751389810826906000,4.156906005859375,-0.159576416015625,1.1067047119140625,0.6552581787109375
1751389810836951300,4.166951416015625,-0.10498046875,1.0023651123046875,0.6202545166015625
1751389810846997200,4.176997314453125,-0.029327392578125,0.9084930419921875,0.546661376953125
1751389810857042400,4.18704248046875,0.0089569091796875,0.8292694091796875,0.5053253173828125
1751389810867088400,4.19708837890625,0.01434326171875,0.76007080078125,0.4860687255859375
1751389810877134300,4.20713427734375,0.0154571533203125,0.7036590576171875,0.4729461669921875
1751389810887179300,4.21717919921875,0.0171966552734375,0.6618499755859375,0.4592742919921875
1751389810897225500,4.2272255859375,0.0130767822265625,0.63616943359375,0.455474853515625
1751389810907270400,4.2372705078125,0.006439208984375,0.618408203125,0.445159912109375
1751389810917316400,4.24731640625,0.0022735595703125,0.6136627197265625,0.4375152587890625
1751389810927362600,4.257362548828125,-0.0041961669921875,0.622406005859375,0.44580078125
1751389810937407500,4.267407470703125,-0.0079498291015625,0.6389923095703125,0.4471588134765625
1751389810947453400,4.277453369140625,0.000396728515625,0.6507110595703125,0.4397735595703125
1751389810957498400,4.287498291015625,-0.000213623046875,0.650970458984375,0.394683837890625
1751389810967544300,4.29754443359375,-0.0199737548828125,0.6566619873046875,0.3515625
1751389810977590300,4.30759033203125,0.0260467529296875,0.6924285888671875,0.4064788818359375
1751389810987635500,4.317635498046875,0.0683746337890625,0.746856689453125,0.4995574951171875
1751389810997681400,4.327681396484375,0.0770416259765625,0.7928009033203125,0.5515899658203125
1751389811007727400,4.337727294921875,0.0914764404296875,0.8317108154296875,0.564697265625
1751389811017772500,4.3477724609375,0.1202239990234375,0.8742828369140625,0.58087158203125
1751389811027818500,4.357818603515625,0.1521453857421875,0.9249267578125,0.61895751953125
1751389811037863400,4.367863525390625,0.1877899169921875,0.9820556640625,0.6743011474609375
1751389811047909400,4.377909423828125,0.2552490234375,1.0361785888671875,0.746246337890625
1751389811057955600,4.38795556640625,0.3235321044921875,1.08380126953125,0.8363494873046875
1751389811068000300,4.398000244140625,0.3232574462890625,1.115081787109375,0.9307098388671875
1751389811078046200,4.408046142578125,0.2692718505859375,1.126708984375,1.001068115234375
1751389811088091400,4.41809130859375,0.2086944580078125,1.109954833984375,1.03472900390625
1751389811098137300,4.428137451171875,0.1573638916015625,1.06317138671875,1.0398712158203125
1751389811108183300,4.438183349609375,0.115478515625,0.9863739013671875,1.01031494140625
1751389811118228500,4.448228515625,0.084716796875,0.9053192138671875,0.97003173828125
1751389811128274400,4.4582744140625,0.0530853271484375,0.85247802734375,0.950897216796875
1751389811138319600,4.468319580078125,0.0135650634765625,0.81011962890625,0.9398651123046875
1751389811148365600,4.478365478515625,-0.025787353515625,0.762939453125,0.9229278564453125
1751389811158411500,4.48841162109375,-0.039886474609375,0.7044525146484375,0.8870086669921875
1751389811168456200,4.498456298828125,-0.0146026611328125,0.633026123046875,0.8572540283203125
1751389811178502400,4.50850244140625,0.0488128662109375,0.5559539794921875,0.84368896484375
1751389811188548400,4.51854833984375,0.084930419921875,0.4929962158203125,0.833282470703125
1751389811198593300,4.52859326171875,0.034881591796875,0.4899139404296875,0.7815093994140625
1751389811208639500,4.538639404296875,-0.04412841796875,0.5375823974609375,0.6973114013671875
1751389811218684400,4.548684326171875,-0.1659088134765625,0.661865234375,0.6129608154296875
1751389811228730400,4.55873046875,-0.4296417236328125,0.8776397705078125,0.5313262939453125
1751389811238776300,4.5687763671875,-0.6139678955078125,1.07794189453125,0.4761199951171875
1751389811248821500,4.578821533203125,-0.56219482421875,1.1939239501953125,0.475616455078125
1751389811258867500,4.588867431640625,-0.4261932373046875,1.2946929931640625,0.5201568603515625
1751389811268912400,4.598912353515625,-0.30230712890625,1.4235076904296875,0.603363037109375
1751389811278958300,4.608958251953125,-0.1987762451171875,1.57354736328125,0.683197021484375
1751389811289004300,4.61900439453125,-0.0885467529296875,1.7328643798828125,0.77191162109375
1751389811299049500,4.629049560546875,0.0145721435546875,1.8965301513671875,0.85308837890625
1751389811309095400,4.639095458984375,0.1122894287109375,2.0650787353515625,0.9036865234375
1751389811319141400,4.649141357421875,0.170440673828125,2.1567535400390625,0.8892364501953125
1751389811329186600,4.6591865234375,0.1820220947265625,2.119537353515625,0.7975616455078125
1751389811339232500,4.669232421875,0.1754150390625,1.91241455078125,0.659942626953125
1751389811349277400,4.67927734375,0.07720947265625,1.631134033203125,0.5035858154296875
1751389811359323400,4.689323486328125,-0.0207061767578125,1.3788909912109375,0.3770599365234375
1751389811369369300,4.699369384765625,-0.111968994140625,1.153350830078125,0.286651611328125
1751389811379414300,4.709414306640625,-0.214569091796875,0.9307708740234375,0.1992645263671875
1751389811389460200,4.719460205078125,-0.283233642578125,0.726470947265625,0.1309051513671875
1751389811399505400,4.72950537109375,-0.2587432861328125,0.583160400390625,0.09814453125
1751389811409551400,4.73955126953125,-0.1504058837890625,0.4899139404296875,0.0859375
1751389811419597300,4.749597412109375,-0.027496337890625,0.4416351318359375,0.0736541748046875
1751389811429642500,4.759642578125,0.071075439453125,0.4055633544921875,0.059844970703125
1751389811439688400,4.7696884765625,0.1539764404296875,0.36663818359375,0.048614501953125
1751389811449734400,4.779734375,0.2103424072265625,0.332122802734375,0.0321044921875
1751389811459779600,4.789779541015625,0.24212646484375,0.2935028076171875,0.0122528076171875
1751389811469825300,4.7998251953125,0.26422119140625,0.2559814453125,-0.006072998046875
1751389811479870200,4.8098701171875,0.27667236328125,0.228607177734375,-0.024505615234375
1751389811489916400,4.81991650390625,0.276519775390625,0.2228546142578125,-0.04052734375
1751389811499962400,4.82996240234375,0.271209716796875,0.2430267333984375,-0.059051513671875
1751389811510007300,4.84000732421875,0.2467193603515625,0.2822723388671875,-0.0684814453125
1751389811520053500,4.850053466796875,0.2171173095703125,0.3356781005859375,-0.0614471435546875
1751389811530099500,4.860099365234375,0.18572998046875,0.402862548828125,-0.028900146484375
1751389811540144400,4.870144287109375,0.1353912353515625,0.4796295166015625,0.03619384765625
1751389811550190300,4.8801904296875,0.06646728515625,0.58251953125,0.1312255859375
1751389811560235500,4.890235595703125,-0.051177978515625,0.73358154296875,0.260406494140625
1751389811570281200,4.90028125,-0.3900604248046875,0.95477294921875,0.4822235107421875
1751389811580327200,4.9103271484375,-0.7135162353515625,0.98614501953125,0.905059814453125
1751389811590372400,4.920372314453125,-0.47894287109375,0.9723358154296875,1.198333740234375
1751389811600418300,4.930418212890625,-0.4573516845703125,1.11126708984375,1.4975738525390625
1751389811610464300,4.94046435546875,-0.5323638916015625,1.2154388427734375,1.8495635986328125
1751389811620509400,4.950509521484375,-0.4872589111328125,1.2988739013671875,2.0299530029296875
1751389811630555400,4.960555419921875,-0.3812713623046875,1.33551025390625,2.1576690673828125
1751389811640600300,4.970600341796875,-0.27301025390625,1.2383575439453125,2.125946044921875
1751389811650646500,4.980646484375,-0.1867218017578125,1.018646240234375,1.749359130859375
1751389811660692500,4.9906923828125,-0.1243438720703125,0.9793548583984375,1.1132049560546875
1751389811670737200,5.000737060546875,-0.081207275390625,1.239959716796875,0.647613525390625
1751389811680783400,5.010783447265625,-0.05047607421875,1.463287353515625,0.4959259033203125
1751389811690829300,5.020829345703125,-0.0529022216796875,1.6191253662109375,0.3710174560546875
1751389811700874200,5.030874267578125,-0.032623291015625,1.682525634765625,0.273101806640625
1751389811710920400,5.04092041015625,-0.066192626953125,1.5656890869140625,0.133758544921875
1751389811720966400,5.05096630859375,-0.13299560546875,1.3016204833984375,0.0918426513671875
1751389811731011300,5.06101123046875,-0.1844940185546875,1.0706024169921875,0.1349029541015625
1751389811741057300,5.071057373046875,-0.1843719482421875,0.909271240234375,0.0996246337890625
1751389811751102500,5.0811025390625,-0.0507354736328125,0.8263092041015625,0.0763092041015625
1751389811761148400,5.0911484375,0.1186981201171875,0.8191986083984375,0.1151885986328125
1751389811771194400,5.1011943359375,0.1975860595703125,0.8011627197265625,0.1423492431640625
1751389811781239300,5.1112392578125,0.20819091796875,0.7552032470703125,0.1274261474609375
1751389811791285200,5.12128515625,0.2017974853515625,0.6951446533203125,0.116058349609375
1751389811801331200,5.131331298828125,0.1785888671875,0.6252288818359375,0.1086578369140625
1751389811811376400,5.14137646484375,0.12939453125,0.568572998046875,0.1005401611328125
1751389811821422300,5.15142236328125,0.103729248046875,0.5590362548828125,0.0888824462890625
1751389811831467300,5.16146728515625,0.1032257080078125,0.5947723388671875,0.091094970703125
1751389811841513500,5.171513427734375,0.115203857421875,0.675872802734375,0.124114990234375
1751389811851559400,5.181559326171875,0.1375579833984375,0.7691497802734375,0.1861419677734375
1751389811861604400,5.191604248046875,0.1804351806640625,0.8600616455078125,0.2525177001953125
1751389811871650600,5.201650634765625,0.239593505859375,0.943756103515625,0.32440185546875
1751389811881696500,5.211696533203125,0.2485504150390625,0.9979248046875,0.391204833984375
1751389811891741400,5.221741455078125,0.1810150146484375,1.0244293212890625,0.4514617919921875
1751389811901787400,5.231787353515625,0.091583251953125,1.03863525390625,0.534912109375
1751389811911833600,5.24183349609375,0.0574951171875,1.019195556640625,0.595062255859375
1751389811921878300,5.251878173828125,0.0690155029296875,0.97369384765625,0.58856201171875
1751389811931924200,5.26192431640625,0.0837249755859375,0.9229736328125,0.556121826171875
1751389811941969400,5.271969482421875,0.08575439453125,0.8674468994140625,0.5336151123046875
1751389811952015400,5.282015380859375,0.0745849609375,0.81793212890625,0.5079498291015625
1751389811962061300,5.292061279296875,0.06805419921875,0.7739410400390625,0.4768218994140625
1751389811972106500,5.3021064453125,0.0633697509765625,0.7329559326171875,0.45709228515625
1751389811982152400,5.31215234375,0.0496063232421875,0.6950531005859375,0.4422760009765625
1751389811992198400,5.322198486328125,0.0432586669921875,0.6634521484375,0.4276275634765625
1751389812002243600,5.33224365234375,0.04742431640625,0.6425933837890625,0.4171905517578125
1751389812012289500,5.34228955078125,0.0634765625,0.634124755859375,0.4153289794921875
1751389812022335500,5.35233544921875,0.0834197998046875,0.647674560546875,0.4243316650390625
1751389812032380400,5.36238037109375,0.103118896484375,0.6832275390625,0.453155517578125
1751389812042426400,5.37242626953125,0.1397705078125,0.7238922119140625,0.49639892578125
1751389812052472300,5.382472412109375,0.144378662109375,0.7658843994140625,0.520263671875
1751389812062517500,5.392517578125,0.098358154296875,0.799560546875,0.5434417724609375
1751389812072563500,5.4025634765625,0.0684356689453125,0.81494140625,0.5613250732421875
1751389812082608400,5.4126083984375,0.039825439453125,0.81500244140625,0.555633544921875
1751389812092654600,5.422654541015625,0.0245361328125,0.80950927734375,0.5168304443359375
1751389812102700500,5.432700439453125,0.016876220703125,0.8204193115234375,0.4957427978515625
1751389812112745500,5.442745361328125,0.016998291015625,0.859527587890625,0.4925537109375
1751389812122791400,5.45279150390625,0.029083251953125,0.922332763671875,0.52337646484375
1751389812132837600,5.462837646484375,0.0428466796875,0.9756011962890625,0.6216888427734375
1751389812142882300,5.47288232421875,0.048858642578125,1.0176849365234375,0.719696044921875
1751389812152928300,5.48292822265625,0.052337646484375,1.053070068359375,0.7942047119140625
1751389812162974500,5.492974365234375,0.0723419189453125,1.0786590576171875,0.8588714599609375
1751389812173019400,5.503019287109375,0.100372314453125,1.085052490234375,0.914947509765625
1751389812183065300,5.5130654296875,0.126617431640625,1.072265625,0.9593505859375
1751389812193111300,5.523111328125,0.151611328125,1.0338592529296875,0.9840087890625
1751389812203156500,5.533156494140625,0.1488494873046875,0.951904296875,0.9721832275390625
1751389812213202400,5.543202392578125,0.08489990234375,0.8518218994140625,0.898468017578125
1751389812223248400,5.553248291015625,0.0110015869140625,0.7982330322265625,0.8230133056640625
1751389812233293600,5.56329345703125,-0.0282745361328125,0.769561767578125,0.7859039306640625
1751389812243339500,5.573339599609375,-0.031005859375,0.73773193359375,0.7837677001953125
1751389812253384400,5.583384521484375,0.0199737548828125,0.69134521484375,0.8183135986328125
1751389812263430400,5.593430419921875,0.0550384521484375,0.62359619140625,0.9081573486328125
1751389812273476400,5.603476318359375,-0.0971832275390625,0.5778656005859375,0.9481353759765625
1751389812283521500,5.613521484375,-0.2672271728515625,0.6177215576171875,0.8677978515625
1751389812293567500,5.6235673828125,-0.3433837890625,0.7147369384765625,0.8267822265625
1751389812303613400,5.633613525390625,-0.34716796875,0.8692474365234375,0.8059844970703125
1751389812313658400,5.643658447265625,-0.266876220703125,1.0143280029296875,0.747711181640625
1751389812323704600,5.65370458984375,-0.1349029541015625,1.1201019287109375,0.6922607421875
1751389812333750500,5.66375048828125,-0.0467376708984375,1.2207489013671875,0.663177490234375
1751389812343795500,5.67379541015625,-0.0230560302734375,1.330780029296875,0.655303955078125
1751389812353841700,5.683841552734375,0.0045166015625,1.4749908447265625,0.6846466064453125
1751389812363887400,5.693887451171875,0.0488433837890625,1.6326446533203125,0.721893310546875
1751389812373932300,5.703932373046875,0.0738372802734375,1.8017578125,0.7587890625
1751389812383978200,5.713978271484375,0.1149139404296875,1.980224609375,0.8123321533203125
1751389812394024400,5.7240244140625,0.1458892822265625,2.154205322265625,0.852783203125
1751389812404069400,5.7340693359375,0.0955047607421875,2.2477874755859375,0.8300323486328125
1751389812414115300,5.744115234375,0.048980712890625,2.2111053466796875,0.7677459716796875
1751389812424161500,5.75416162109375,-0.025543212890625,1.9880828857421875,0.6075897216796875
1751389812434206500,5.76420654296875,-0.14031982421875,1.669586181640625,0.4184722900390625
1751389812444252400,5.77425244140625,-0.1994171142578125,1.39044189453125,0.2852783203125
1751389812454297600,5.784297607421875,-0.2071380615234375,1.1579437255859375,0.2119903564453125
1751389812464343300,5.79434326171875,-0.1887969970703125,0.944091796875,0.1630401611328125
1751389812474389200,5.80438916015625,-0.1181793212890625,0.769195556640625,0.1376953125
1751389812484434400,5.814434326171875,-0.0242156982421875,0.6322174072265625,0.119110107421875
1751389812494480400,5.82448046875,0.0716400146484375,0.5259857177734375,0.102935791015625
1751389812504526300,5.8345263671875,0.1736297607421875,0.4525909423828125,0.092315673828125
1751389812514571500,5.844571533203125,0.259490966796875,0.385711669921875,0.0744781494140625
1751389812524617500,5.854617431640625,0.302001953125,0.323486328125,0.0579071044921875
1751389812534663400,5.864663330078125,0.3194580078125,0.2753753662109375,0.038238525390625
1751389812544708600,5.87470849609375,0.3345947265625,0.2209014892578125,0.0183258056640625
1751389812554754600,5.884754638671875,0.35418701171875,0.1807708740234375,-0.0037994384765625
1751389812564800500,5.894800537109375,0.3606109619140625,0.1541595458984375,-0.030670166015625
1751389812574845400,5.904845458984375,0.33636474609375,0.1489410400390625,-0.0548553466796875
1751389812584891400,5.914891357421875,0.2900238037109375,0.164764404296875,-0.0831756591796875
1751389812594937300,5.924937255859375,0.2425537109375,0.206268310546875,-0.115478515625
1751389812604982300,5.934982177734375,0.20928955078125,0.259552001953125,-0.1431732177734375
1751389812615028500,5.945028564453125,0.188140869140625,0.3115234375,-0.15667724609375
1751389812625074400,5.955074462890625,0.1562652587890625,0.365325927734375,-0.141143798828125
1751389812635119400,5.965119384765625,0.1068878173828125,0.441131591796875,-0.0795440673828125
1751389812645165600,5.97516552734375,-0.022369384765625,0.5724029541015625,-0.0040435791015625
1751389812655211500,5.98521142578125,-0.395660400390625,0.8209075927734375,0.1107940673828125
1751389812665256400,5.99525634765625,-1.1622314453125,1.17449951171875,0.4597625732421875
1751389812675302400,6.005302490234375,-1.1151580810546875,1.10784912109375,0.9458160400390625
1751389812685348600,6.0153486328125,-0.6780853271484375,1.0473175048828125,1.102386474609375
1751389812695393300,6.025393310546875,-0.5223846435546875,1.1796875,1.2697601318359375
1751389812705439200,6.035439208984375,-0.3798828125,1.3649749755859375,1.58233642578125
1751389812715485400,6.0454853515625,-0.2006378173828125,1.4391021728515625,1.7826385498046875
1751389812725530400,6.0555302734375,-0.0846710205078125,1.485198974609375,1.9654998779296875
1751389812735576300,6.065576416015625,0.022552490234375,1.4538421630859375,2.0475616455078125
1751389812745622300,6.075622314453125,0.0569000244140625,1.2289276123046875,1.7518768310546875
1751389812755667500,6.08566748046875,0.0147857666015625,1.1270751953125,1.1159210205078125
1751389812765713400,6.09571337890625,-0.0230560302734375,1.32147216796875,0.7455291748046875
1751389812775759400,6.10575927734375,-0.0942230224609375,1.59033203125,0.6115570068359375
1751389812785804500,6.115804443359375,-0.2370758056640625,1.7780303955078125,0.4644927978515625
1751389812795850500,6.1258505859375,-0.166168212890625,1.7220916748046875,0.4414520263671875
1751389812805895400,6.1358955078125,-0.0326080322265625,1.444732666015625,0.469482421875
1751389812815941400,6.14594140625,0.0287628173828125,1.22259521484375,0.4059600830078125
1751389812825987300,6.1559873046875,0.0723419189453125,1.01641845703125,0.31341552734375
1751389812836032500,6.166032470703125,-0.0444793701171875,0.7495880126953125,0.2608489990234375
1751389812846078500,6.176078369140625,-0.2865447998046875,0.46673583984375,0.1438751220703125
1751389812856124400,6.18612451171875,-0.232208251953125,0.39794921875,0.0373687744140625
1751389812866169300,6.19616943359375,-0.0323944091796875,0.4361724853515625,0.0529327392578125
1751389812876215600,6.206215576171875,0.103363037109375,0.4589080810546875,0.0891265869140625
1751389812886261200,6.21626123046875,0.1916656494140625,0.48260498046875,0.082672119140625
1751389812896306000,6.226305908203125,0.2525634765625,0.517608642578125,0.08258056640625
1751389812906352000,6.23635205078125,0.258148193359375,0.57757568359375,0.0987396240234375
1751389812916398000,6.246398193359375,0.2443695068359375,0.666748046875,0.1360626220703125
1751389812926443000,6.256443115234375,0.231353759765625,0.7784881591796875,0.183074951171875
1751389812936489200,6.2664892578125,0.2210845947265625,0.9016876220703125,0.2154388427734375
1751389812946535200,6.27653515625,0.2220001220703125,1.0238800048828125,0.2529754638671875
1751389812956580000,6.286580078125,0.235565185546875,1.12811279296875,0.3058929443359375
1751389812966626000,6.2966259765625,0.231658935546875,1.186737060546875,0.36669921875
1751389812976672300,6.30667236328125,0.190826416015625,1.176239013671875,0.415008544921875
1751389812986717200,6.31671728515625,0.1329498291015625,1.1272125244140625,0.440277099609375
1751389812996763100,6.32676318359375,0.0713958740234375,1.0636749267578125,0.4456787109375
1751389813006809300,6.336809326171875,0.0321044921875,0.9835357666015625,0.44110107421875
1751389813016854000,6.34685400390625,0.01239013671875,0.9033203125,0.43707275390625
1751389813026900000,6.35689990234375,-0.011444091796875,0.8203887939453125,0.4403839111328125
1751389813036946200,6.3669462890625,-0.0169830322265625,0.747314453125,0.4384307861328125
1751389813046991000,6.3769912109375,-0.005340576171875,0.692626953125,0.4334716796875
1751389813057037000,6.387037109375,0.00006103515625,0.6515045166015625,0.4378204345703125
1751389813067083000,6.3970830078125,-0.004974365234375,0.6205596923828125,0.441070556640625
1751389813077128200,6.407128173828125,-0.0060272216796875,0.6009521484375,0.4295654296875
1751389813087174100,6.417174072265625,-0.00897216796875,0.597564697265625,0.41717529296875
1751389813097220000,6.42722021484375,-0.002471923828125,0.6026763916015625,0.40496826171875
1751389813107265300,6.437265380859375,0.0233612060546875,0.6251220703125,0.405609130859375
1751389813117311200,6.447311279296875,0.0535125732421875,0.666046142578125,0.4280548095703125
1751389813127357200,6.457357177734375,0.0792694091796875,0.693511962890625,0.45159912109375
1751389813137402000,6.467402099609375,0.086395263671875,0.7181549072265625,0.476409912109375
1751389813147448000,6.477447998046875,0.0839691162109375,0.74310302734375,0.487701416015625
1751389813157494000,6.487493896484375,0.1001739501953125,0.7665252685546875,0.49395751953125
1751389813167539200,6.497539306640625,0.0821990966796875,0.8023223876953125,0.52496337890625
1751389813177585200,6.507585205078125,0.0533905029296875,0.84130859375,0.552947998046875
1751389813187631000,6.517631103515625,0.0493621826171875,0.8739013671875,0.567047119140625
1751389813197676300,6.52767626953125,0.0624542236328125,0.91119384765625,0.5745697021484375
1751389813207722200,6.53772216796875,0.08544921875,0.9726715087890625,0.5836334228515625
1751389813217768200,6.547768310546875,0.0960845947265625,1.0259246826171875,0.62384033203125
1751389813227813000,6.557813232421875,0.096099853515625,1.051513671875,0.6941680908203125
1751389813237859300,6.567859375,0.103057861328125,1.0648651123046875,0.7644805908203125
1751389813247905000,6.577905029296875,0.116119384765625,1.0838470458984375,0.82159423828125
1751389813257950000,6.587949951171875,0.1265869140625,1.1048126220703125,0.8872222900390625
1751389813267996200,6.59799609375,0.1387786865234375,1.10662841796875,0.952178955078125
1751389813278042000,6.6080419921875,0.1428375244140625,1.093353271484375,1.006683349609375
1751389813288088000,6.618088134765625,0.128173828125,1.0837249755859375,1.054656982421875
1751389813298133200,6.62813330078125,0.0925140380859375,1.07073974609375,1.10089111328125
1751389813308179200,6.63817919921875,0.03466796875,1.0422821044921875,1.1184234619140625
1751389813318225200,6.64822509765625,-0.0067291259765625,0.9857635498046875,1.100341796875
1751389813328270000,6.65827001953125,-0.0742950439453125,0.914093017578125,1.1005096435546875
1751389813338316300,6.66831640625,-0.1120452880859375,0.8198699951171875,1.0043182373046875
1751389813348362200,6.6783623046875,-0.0874786376953125,0.733856201171875,0.869415283203125
1751389813358407000,6.688406982421875,-0.0164794921875,0.6434173583984375,0.7791748046875
1751389813368453000,6.698453125,0.09197998046875,0.568817138671875,0.706024169921875
1751389813378499000,6.7084990234375,0.1211395263671875,0.58538818359375,0.6053314208984375
1751389813388544000,6.7185439453125,0.0582427978515625,0.7395782470703125,0.477630615234375
1751389813398590200,6.728590087890625,-0.01287841796875,0.9049072265625,0.41351318359375
1751389813408636200,6.73863623046875,-0.11920166015625,1.056304931640625,0.39178466796875
1751389813418681000,6.74868115234375,-0.3224029541015625,1.2363739013671875,0.393951416015625
1751389813428727000,6.75872705078125,-0.5359649658203125,1.43438720703125,0.423553466796875
1751389813438773200,6.768773193359375,-0.5680389404296875,1.584228515625,0.51416015625
1751389813448818200,6.778818115234375,-0.4704132080078125,1.708984375,0.6203765869140625
1751389813458864000,6.788864013671875,-0.281097412109375,1.8437652587890625,0.709930419921875
1751389813468910300,6.798910400390625,-0.041229248046875,1.9908905029296875,0.774017333984375
1751389813478955000,6.808955078125,0.0414886474609375,2.0861968994140625,0.7675323486328125
1751389813489001000,6.8190009765625,0.1100921630859375,2.1188507080078125,0.70635986328125
1751389813499047200,6.829047119140625,0.1666717529296875,2.002410888671875,0.5895233154296875
1751389813509092000,6.839092041015625,0.1424407958984375,1.7613067626953125,0.4579315185546875
1751389813519138000,6.849137939453125,0.0801544189453125,1.4944305419921875,0.3404541015625
1751389813529184000,6.85918408203125,0.005157470703125,1.2639923095703125,0.2754364013671875
1751389813539229200,6.869229248046875,0.009307861328125,1.0665130615234375,0.21612548828125
1751389813549275100,6.879275146484375,0.016815185546875,0.880340576171875,0.15447998046875
1751389813559321000,6.889321044921875,-0.0090179443359375,0.6982421875,0.1094207763671875
1751389813569366300,6.8993662109375,-0.0370635986328125,0.5341796875,0.07086181640625
1751389813579412200,6.909412109375,-0.0171356201171875,0.406463623046875,0.0341949462890625
1751389813589458200,6.919458251953125,0.037200927734375,0.318206787109375,0.0040435791015625
1751389813599503000,6.929503173828125,0.0848846435546875,0.254364013671875,-0.01580810546875
1751389813609549000,6.939549072265625,0.1249542236328125,0.199676513671875,-0.033355712890625
1751389813619595000,6.949594970703125,0.14923095703125,0.15521240234375,-0.0471649169921875
1751389813629641000,6.959640869140625,0.18408203125,0.130859375,-0.055755615234375
1751389813639686100,6.96968603515625,0.24261474609375,0.1191253662109375,-0.065673828125
1751389813649732000,6.979732177734375,0.274383544921875,0.129608154296875,-0.0805816650390625
1751389813659778000,6.989778076171875,0.298614501953125,0.165985107421875,-0.0999298095703125
1751389813669823200,6.9998232421875,0.312530517578125,0.2323760986328125,-0.109954833984375
1751389813679869200,7.009869140625,0.309417724609375,0.2962188720703125,-0.1089324951171875
1751389813689915100,7.0199150390625,0.3067169189453125,0.36468505859375,-0.0899658203125
1751389813699960300,7.029960205078125,0.2837677001953125,0.454315185546875,-0.03997802734375
1751389813710006300,7.04000634765625,0.2117462158203125,0.5475311279296875,0.02593994140625
1751389813720052200,7.05005224609375,0.0648193359375,0.6562042236328125,0.0887298583984375
1751389813730097200,7.06009716796875,-0.2631988525390625,0.85986328125,0.18206787109375
1751389813740143000,7.07014306640625,-1.1810760498046875,1.2344512939453125,0.485748291015625
1751389813750189000,7.08018896484375,-1.40777587890625,1.2186126708984375,1.0207366943359375
1751389813760234200,7.090234130859375,-0.8783111572265625,1.1677093505859375,1.20684814453125
1751389813770280200,7.1002802734375,-0.7683563232421875,1.32818603515625,1.4386749267578125
1751389813780326100,7.110326171875,-0.6052398681640625,1.4993438720703125,1.76641845703125
1751389813790371000,7.12037109375,-0.346527099609375,1.5059661865234375,1.8850555419921875
1751389813800417300,7.130417236328125,-0.1425933837890625,1.4961090087890625,1.990234375
1751389813810463200,7.140463134765625,-0.0015411376953125,1.34405517578125,1.976898193359375
1751389813820508200,7.150508056640625,0.028839111328125,0.981719970703125,1.5988922119140625
1751389813830554400,7.160554443359375,0.0452880859375,0.676513671875,0.9720916748046875
1751389813840600300,7.170600341796875,0.036224365234375,0.66925048828125,0.5100555419921875
1751389813850645000,7.18064501953125,0.07421875,0.9016265869140625,0.3484344482421875
1751389813860691000,7.19069091796875,0.14764404296875,1.1842193603515625,0.3628082275390625
1751389813870737200,7.200737060546875,0.0915069580078125,1.4629669189453125,0.3260345458984375
1751389813880785400,7.210785400390625,-0.026824951171875,1.7288665771484375,0.2508697509765625
1751389813890831400,7.220831298828125,-0.0038299560546875,1.7336883544921875,0.356964111328125
1751389813900877600,7.230877685546875,0.026275634765625,1.4331512451171875,0.402618408203125
1751389813910923500,7.240923583984375,-0.0396728515625,1.1813812255859375,0.3010406494140625
1751389813920968400,7.250968505859375,-0.206390380859375,0.9327850341796875,0.267578125
1751389813931014700,7.2610146484375,-0.288482666015625,0.74755859375,0.2057342529296875
1751389813941060600,7.271060546875,-0.09271240234375,0.7534332275390625,0.1688385009765625
1751389813951105500,7.28110546875,0.0640869140625,0.74395751953125,0.17437744140625
1751389813961151500,7.2911513671875,0.117523193359375,0.695709228515625,0.1676788330078125
1751389813971197700,7.30119775390625,0.1484222412109375,0.6434326171875,0.150177001953125
1751389813981242400,7.311242431640625,0.177093505859375,0.600128173828125,0.136322021484375
1751389813991288300,7.321288330078125,0.19073486328125,0.5717620849609375,0.1217193603515625
1751389814001334500,7.33133447265625,0.1938934326171875,0.58221435546875,0.1102294921875
1751389814011379500,7.34137939453125,0.195037841796875,0.6533050537109375,0.117523193359375
1751389814021425400,7.35142529296875,0.2053985595703125,0.7762603759765625,0.1622467041015625
1751389814031471600,7.3614716796875,0.2110595703125,0.9113922119140625,0.223052978515625
1751389814041516500,7.3715166015625,0.2291412353515625,1.037933349609375,0.28924560546875
1751389814051562500,7.3815625,0.2295074462890625,1.12347412109375,0.363067626953125
1751389814061608400,7.3916083984375,0.1909942626953125,1.158660888671875,0.4275970458984375
1751389814071653600,7.401653564453125,0.139739990234375,1.148406982421875,0.4677581787109375
1751389814081699600,7.411699462890625,0.1024322509765625,1.0993804931640625,0.4894561767578125
1751389814091745500,7.42174560546875,0.0645751953125,1.01727294921875,0.4942626953125
1751389814101790500,7.43179052734375,0.0366058349609375,0.913604736328125,0.4618072509765625
1751389814111836400,7.44183642578125,0.038330078125,0.8275909423828125,0.4217681884765625
1751389814121882400,7.45188232421875,0.054107666015625,0.7680206298828125,0.3977203369140625
1751389814131928300,7.46192822265625,0.0603179931640625,0.7227630615234375,0.38543701171875
1751389814141973500,7.471973388671875,0.0546417236328125,0.6832122802734375,0.3792266845703125
1751389814152019500,7.48201953125,0.0512237548828125,0.6510467529296875,0.3746185302734375
1751389814162065400,7.4920654296875,0.0498199462890625,0.632598876953125,0.367767333984375
1751389814172110600,7.502110595703125,0.0518341064453125,0.6239013671875,0.3590087890625
1751389814182156500,7.512156494140625,0.064971923828125,0.632415771484375,0.357452392578125
1751389814192202500,7.522202392578125,0.09515380859375,0.67059326171875,0.372650146484375
1751389814202247700,7.53224755859375,0.12884521484375,0.7219696044921875,0.4135894775390625
1751389814212293600,7.542293701171875,0.137603759765625,0.77655029296875,0.46514892578125
1751389814222339300,7.55233935546875,0.1147308349609375,0.836151123046875,0.522705078125
1751389814232384500,7.562384521484375,0.1005706787109375,0.8913116455078125,0.5750274658203125
1751389814242430500,7.572430419921875,0.075714111328125,0.9254608154296875,0.6101837158203125
1751389814252476400,7.582476318359375,0.0438079833984375,0.9441680908203125,0.628204345703125
1751389814262522400,7.5925224609375,0.0312347412109375,0.9438018798828125,0.612457275390625
1751389814272567600,7.602567626953125,0.0247802734375,0.9223175048828125,0.5733489990234375
1751389814282613500,7.612613525390625,0.016937255859375,0.9011077880859375,0.54486083984375
1751389814292659500,7.622659423828125,0.0156402587890625,0.9013519287109375,0.5563812255859375
1751389814302704600,7.63270458984375,0.0344696044921875,0.94171142578125,0.6336822509765625
1751389814312750600,7.64275048828125,0.057708740234375,0.97869873046875,0.746185302734375
1751389814322796500,7.652796630859375,0.055023193359375,0.9914093017578125,0.819854736328125
1751389814332841500,7.662841552734375,0.04522705078125,1.0101470947265625,0.8788909912109375
1751389814342887400,7.672887451171875,0.04571533203125,1.016845703125,0.939605712890625
1751389814352933400,7.682933349609375,0.05938720703125,1.005218505859375,0.9939117431640625
1751389814362978600,7.692978515625,0.0850830078125,0.9705963134765625,1.04620361328125
1751389814373024500,7.7030244140625,0.0928802490234375,0.908905029296875,1.0580596923828125
1751389814383070500,7.713070556640625,0.050201416015625,0.861846923828125,0.9989471435546875
1751389814393116400,7.723116455078125,-0.00506591796875,0.835540771484375,0.93963623046875
1751389814403161600,7.73316162109375,-0.04046630859375,0.8006744384765625,0.91973876953125
1751389814413207600,7.74320751953125,-0.0789794921875,0.72393798828125,0.9376068115234375
1751389814423253500,7.75325341796875,-0.1704559326171875,0.6275482177734375,0.996185302734375
1751389814433298700,7.763298583984375,-0.159698486328125,0.5598297119140625,0.92010498046875
1751389814443344600,7.7733447265625,-0.1367340087890625,0.51837158203125,0.851470947265625
1751389814453390600,7.783390625,-0.10980224609375,0.5038604736328125,0.800323486328125
1751389814463435500,7.793435546875,-0.0803985595703125,0.5997161865234375,0.72625732421875
1751389814473481500,7.8034814453125,-0.058349609375,0.7903900146484375,0.6435546875
1751389814483527400,7.81352734375,-0.0281829833984375,0.9373779296875,0.6105804443359375
1751389814493572400,7.823572265625,-0.020263671875,1.0841522216796875,0.620635986328125
1751389814503618600,7.83361865234375,-0.009857177734375,1.2320404052734375,0.637237548828125
1751389814513664500,7.84366455078125,-0.01568603515625,1.386566162109375,0.6555938720703125
1751389814523710500,7.85371044921875,-0.04022216796875,1.552490234375,0.68072509765625
1751389814533755600,7.863755615234375,-0.016571044921875,1.7269439697265625,0.7592620849609375
1751389814543801600,7.873801513671875,0.0275115966796875,1.9151153564453125,0.841033935546875
1751389814553847600,7.88384765625,0.1136016845703125,2.143341064453125,0.9087371826171875
1751389814563892500,7.893892578125,0.1450958251953125,2.3667449951171875,0.934539794921875
1751389814573938700,7.903938720703125,0.1161956787109375,2.480010986328125,0.8841705322265625
1751389814583984600,7.913984619140625,0.05889892578125,2.4179840087890625,0.7661590576171875
1751389814594029300,7.924029296875,-0.1203460693359375,2.1152496337890625,0.565216064453125
1751389814604075500,7.934075439453125,-0.305450439453125,1.7306365966796875,0.344482421875
1751389814614121500,7.94412158203125,-0.4110870361328125,1.40496826171875,0.21148681640625
1751389814624166400,7.95416650390625,-0.34674072265625,1.1436767578125,0.153656005859375
1751389814634212600,7.964212646484375,-0.2184906005859375,0.93511962890625,0.120635986328125
1751389814644258600,7.974258544921875,-0.0856170654296875,0.759521484375,0.0972900390625
1751389814654304500,7.984304443359375,0.0140838623046875,0.6168060302734375,0.07098388671875
1751389814664349400,7.994349365234375,0.076141357421875,0.511810302734375,0.0511474609375
1751389814674395600,8.004395751953124,0.1250457763671875,0.4194488525390625,0.0385284423828125
1751389814684441600,8.014441650390625,0.1859130859375,0.3438568115234375,0.0280303955078125
1751389814694486500,8.024486572265625,0.23846435546875,0.28497314453125,0.012908935546875
1751389814704532700,8.03453271484375,0.2713165283203125,0.218017578125,-0.0093841552734375
1751389814714578700,8.04457861328125,0.2806396484375,0.1658935546875,-0.0335235595703125
1751389814724623400,8.054623291015625,0.2906341552734375,0.121978759765625,-0.0575714111328125
1751389814734669600,8.064669677734376,0.298187255859375,0.0874481201171875,-0.078125
1751389814744715500,8.074715576171876,0.300537109375,0.070220947265625,-0.1020355224609375
1751389814754760400,8.084760498046874,0.280181884765625,0.071929931640625,-0.1309814453125
1751389814764806400,8.094806396484374,0.2312469482421875,0.09466552734375,-0.1600494384765625
1751389814774852600,8.1048525390625,0.1795501708984375,0.1428375244140625,-0.1821746826171875
1751389814784898600,8.114898681640625,0.1473236083984375,0.208984375,-0.1913604736328125
1751389814794943500,8.124943603515625,0.0775909423828125,0.3042144775390625,-0.1739349365234375
1751389814804989700,8.13498974609375,-0.053192138671875,0.44305419921875,-0.1159210205078125
1751389814815035600,8.14503564453125,-0.246307373046875,0.626068115234375,-0.016448974609375
1751389814825080300,8.155080322265626,-0.573974609375,0.9163360595703125,0.213775634765625
1751389814835126300,8.165126220703126,-0.912353515625,1.0962371826171875,0.6409759521484375
1751389814845172500,8.17517236328125,-0.6018218994140625,1.0778656005859375,0.92242431640625
1751389814855217400,8.185217529296875,-0.4157867431640625,1.1864166259765625,1.1127166748046875
1751389814865263400,8.195263427734375,-0.4434967041015625,1.4268341064453125,1.5128173828125
1751389814875309600,8.2053095703125,-0.3643951416015625,1.630096435546875,1.96124267578125
1751389814885352000,8.21535205078125,-0.250762939453125,1.7237701416015625,2.2589263916015625
1751389814895396900,8.22539697265625,-0.1611328125,1.6875457763671875,2.458282470703125
1751389814905443000,8.235443115234375,-0.090240478515625,1.3328704833984375,2.24566650390625
1751389814915489000,8.245489013671875,-0.0504913330078125,0.8541717529296875,1.574462890625
1751389814925534000,8.255533935546875,-0.0157928466796875,0.641510009765625,0.94744873046875
1751389814935580000,8.265579833984376,-0.03271484375,0.7093048095703125,0.573577880859375
1751389814945626000,8.275626220703124,-0.005096435546875,0.9573822021484375,0.4351348876953125
1751389814955670800,8.2856708984375,0.0227203369140625,1.224456787109375,0.4125518798828125
1751389814965716700,8.295716796875,-0.0858001708984375,1.54449462890625,0.3685302734375
1751389814975763000,8.305762939453125,-0.087615966796875,1.696044921875,0.4227447509765625
1751389814985808000,8.315807861328125,-0.0233001708984375,1.5024871826171875,0.519775390625
1751389814995853800,8.325853759765625,0.0130462646484375,1.2376708984375,0.3811187744140625
1751389815005900000,8.335900146484375,-0.0571136474609375,1.0273590087890625,0.2774200439453125
1751389815015946000,8.345946044921876,-0.3083953857421875,0.783599853515625,0.2168731689453125
1751389815025991000,8.355990966796876,-0.3615570068359375,0.63421630859375,0.05303955078125
1751389815036036900,8.366036865234374,-0.093231201171875,0.6589508056640625,0.0125274658203125
1751389815046083000,8.3760830078125,0.12872314453125,0.6752777099609375,0.0760955810546875
1751389815056128000,8.3861279296875,0.2259521484375,0.650177001953125,0.09027099609375
1751389815066174000,8.396174072265625,0.275909423828125,0.6495208740234375,0.09796142578125
1751389815076220200,8.40622021484375,0.2835540771484375,0.6334991455078125,0.093414306640625
1751389815086264800,8.416264892578125,0.2641754150390625,0.6214141845703125,0.0826873779296875
1751389815096310800,8.426310791015625,0.2353515625,0.655303955078125,0.0772705078125
1751389815106356700,8.436356689453126,0.2365875244140625,0.738922119140625,0.092376708984375
1751389815116403000,8.44640283203125,0.2395172119140625,0.871185302734375,0.1338348388671875
1751389815126447900,8.45644775390625,0.235931396484375,1.00848388671875,0.1847991943359375
1751389815136493800,8.466493896484375,0.231658935546875,1.121917724609375,0.24322509765625
1751389815146540000,8.4765400390625,0.214447021484375,1.1746063232421875,0.3018798828125
1751389815156585000,8.4865849609375,0.18182373046875,1.1612091064453125,0.3505401611328125
1751389815166631000,8.496630859375,0.1383819580078125,1.119354248046875,0.3787689208984375
1751389815176676900,8.5066767578125,0.095611572265625,1.0607147216796875,0.390625
1751389815186722000,8.51672216796875,0.0587921142578125,0.9929962158203125,0.3954010009765625
1751389815196767700,8.526767822265626,0.0341339111328125,0.9210968017578125,0.3898468017578125
1751389815206813700,8.536813720703124,0.0203094482421875,0.8492889404296875,0.3798980712890625
1751389815216859000,8.54685888671875,0.0052642822265625,0.78997802734375,0.3853759765625
1751389815226904800,8.55690478515625,-0.006256103515625,0.7430572509765625,0.3977508544921875
1751389815236950800,8.56695068359375,0.0059051513671875,0.7096099853515625,0.399444580078125
1751389815246997000,8.5769970703125,0.0208740234375,0.68975830078125,0.397613525390625
1751389815257042000,8.5870419921875,0.027679443359375,0.67132568359375,0.3999786376953125
1751389815267088000,8.597087890625,0.043975830078125,0.657501220703125,0.3935546875
1751389815277133800,8.6071337890625,0.0592498779296875,0.653167724609375,0.3909149169921875
1751389815287179000,8.617178955078124,0.065185546875,0.6655731201171875,0.404998779296875
1751389815297225000,8.627224853515624,0.0659942626953125,0.7017059326171875,0.43634033203125
1751389815307271000,8.63727099609375,0.082061767578125,0.752288818359375,0.477294921875
1751389815317315800,8.64731591796875,0.1441497802734375,0.7951202392578125,0.5054473876953125
1751389815327361800,8.65736181640625,0.131011962890625,0.8275604248046875,0.5335693359375
1751389815337407700,8.66740771484375,0.0510711669921875,0.8537445068359375,0.584930419921875
1751389815347454000,8.677453857421876,0.0249786376953125,0.8623199462890625,0.6054229736328125
1751389815357499000,8.687498779296876,0.0100860595703125,0.85797119140625,0.59271240234375
1751389815367544800,8.697544921875,-0.0109710693359375,0.8553314208984375,0.5838623046875
1751389815377590800,8.7075908203125,-0.021392822265625,0.866607666015625,0.590972900390625
1751389815387636000,8.717635986328125,-0.01092529296875,0.884674072265625,0.60748291015625
1751389815397682000,8.727681884765625,0.015655517578125,0.9141845703125,0.6337738037109375
1751389815407727900,8.737727783203125,0.047760009765625,0.9645538330078125,0.6775665283203125
1751389815417773000,8.74777294921875,0.08953857421875,1.0231781005859375,0.7513580322265625
1751389815427819000,8.757819091796875,0.142578125,1.08087158203125,0.8607940673828125
1751389815437865000,8.767864990234376,0.204742431640625,1.125244140625,1.0341796875
1751389815447910000,8.777909912109376,0.1908111572265625,1.1246795654296875,1.150177001953125
1751389815457955800,8.787955810546874,0.0933990478515625,1.0858917236328125,1.13739013671875
1751389815468001800,8.798001708984375,0.0241546630859375,1.01629638671875,1.06402587890625
1751389815478047700,8.8080478515625,-0.009490966796875,0.936187744140625,0.9825897216796875
1751389815488093000,8.818093017578125,-0.016693115234375,0.8626251220703125,0.935638427734375
1751389815498139000,8.828138916015625,-0.0063629150390625,0.7847900390625,0.93438720703125
1751389815508184800,8.838184814453125,-0.0415802001953125,0.67669677734375,0.990203857421875
1751389815518230000,8.84822998046875,-0.2253570556640625,0.567169189453125,1.0687408447265625
1751389815528276000,8.85827587890625,-0.331939697265625,0.49737548828125,1.0026092529296875
1751389815538322000,8.868322021484374,-0.322540283203125,0.4593353271484375,0.901092529296875
1751389815548367000,8.8783671875,-0.27490234375,0.4918060302734375,0.8000640869140625
1751389815558413000,8.8884130859375,-0.2157745361328125,0.62579345703125,0.7193603515625
1751389815568459000,8.898458984375,-0.1636199951171875,0.8218231201171875,0.6573638916015625
1751389815578505000,8.9085048828125,-0.101531982421875,0.9776611328125,0.6283416748046875
1751389815588550000,8.9185498046875,-0.039459228515625,1.134552001953125,0.6491241455078125
1751389815598595800,8.928595947265626,0.0140533447265625,1.298675537109375,0.671112060546875
1751389815608641800,8.938641845703126,0.037017822265625,1.4767608642578125,0.707122802734375
1751389815618687000,8.94868701171875,0.0310821533203125,1.65777587890625,0.77191162109375
1751389815628733000,8.95873291015625,0.0431060791015625,1.8425140380859375,0.850341796875
1751389815638779000,8.96877880859375,0.089447021484375,2.0302734375,0.9167327880859375
1751389815648824000,8.978823974609375,0.139007568359375,2.236419677734375,0.9677734375
1751389815658870000,8.9888701171875,0.150299072265625,2.44012451171875,0.9595489501953125
1751389815668916000,8.998916015625,0.039398193359375,2.517791748046875,0.8942718505859375
1751389815678961200,9.008961181640625,-0.0128326416015625,2.3961181640625,0.7600250244140625
1751389815689007000,9.019007080078126,-0.1093902587890625,2.053497314453125,0.542938232421875
1751389815699052800,9.029052734375,-0.260223388671875,1.677215576171875,0.3420867919921875
1751389815709098800,9.0390986328125,-0.3737640380859375,1.366790771484375,0.21636962890625
1751389815719144000,9.04914404296875,-0.333038330078125,1.0970306396484375,0.1397857666015625
1751389815729190000,9.05918994140625,-0.215789794921875,0.892974853515625,0.1167449951171875
1751389815739235800,9.06923583984375,-0.06634521484375,0.7329559326171875,0.1124725341796875
1751389815749281000,9.079281005859375,0.04095458984375,0.6069488525390625,0.10052490234375
1751389815759327000,9.089326904296875,0.1087646484375,0.48974609375,0.09442138671875
1751389815769373000,9.099373046875,0.16961669921875,0.3905792236328125,0.0808258056640625
1751389815779418000,9.109418212890626,0.231842041015625,0.30718994140625,0.0616302490234375
1751389815789464000,9.119464111328124,0.28668212890625,0.22857666015625,0.0382537841796875
1751389815799510000,9.129510009765625,0.32305908203125,0.1613922119140625,0.0103759765625
1751389815809554700,9.1395546875,0.3336639404296875,0.1013031005859375,-0.0136566162109375
1751389815819601000,9.149600830078125,0.335662841796875,0.056915283203125,-0.0331878662109375
1751389815829646800,9.159646728515625,0.3472900390625,0.0282135009765625,-0.0549774169921875
1751389815839692800,9.16969287109375,0.3582916259765625,0.0155792236328125,-0.0897216796875
1751389815849738000,9.179738037109376,0.33660888671875,0.0229339599609375,-0.120452880859375
1751389815859784000,9.189783935546876,0.30682373046875,0.0521240234375,-0.151092529296875
1751389815869830000,9.199829833984374,0.27630615234375,0.108795166015625,-0.16876220703125
1751389815879875000,9.209875,0.2307281494140625,0.172332763671875,-0.1717529296875
1751389815889920500,9.21992041015625,0.148895263671875,0.246673583984375,-0.1728515625
1751389815899966500,9.229966552734375,-0.0388641357421875,0.3768310546875,-0.158905029296875
1751389815910011600,9.24001171875,-0.4720306396484375,0.6786041259765625,-0.0727386474609375
1751389815920057600,9.2500576171875,-1.292724609375,1.11016845703125,0.3116912841796875
1751389815930103600,9.260103515625,-1.105316162109375,1.069366455078125,0.760894775390625
1751389815940148500,9.2701484375,-0.6602020263671875,1.066314697265625,0.8936767578125
1751389815950194700,9.280194580078126,-0.4897918701171875,1.226287841796875,1.090484619140625
1751389815960240600,9.29024072265625,-0.338775634765625,1.4537200927734375,1.4481201171875
1751389815970286600,9.30028662109375,-0.1895751953125,1.7034454345703125,1.9209442138671875
1751389815980331800,9.310331787109375,-0.0107574462890625,1.7880096435546875,2.24053955078125
1751389815990377700,9.320377685546875,0.0885467529296875,1.724395751953125,2.3618316650390625
1751389816000423700,9.330423583984375,0.1248016357421875,1.4887542724609375,2.059906005859375
1751389816010468600,9.340468505859375,0.066192626953125,1.3476104736328125,1.3584136962890625
1751389816020514600,9.3505146484375,0.047698974609375,1.406097412109375,0.8477935791015625
1751389816030560500,9.360560546875,0.0596160888671875,1.5561676025390625,0.66192626953125
1751389816040605400,9.37060546875,0.044097900390625,1.6197662353515625,0.5800933837890625
1751389816050651600,9.380651611328124,0.0662994384765625,1.4269256591796875,0.5834197998046875
1751389816060697600,9.390697509765625,0.0877685546875,1.1870574951171875,0.5177154541015625
1751389816070742500,9.400742431640625,0.06103515625,0.98931884765625,0.3634033203125
1751389816080788700,9.410788818359375,-0.2502593994140625,0.679656982421875,0.241180419921875
1751389816090834700,9.420834716796875,-0.5552520751953125,0.4332275390625,0.05487060546875
1751389816100880600,9.430880615234376,-0.3301239013671875,0.4492950439453125,-0.0602874755859375
1751389816110925300,9.44092529296875,0.004913330078125,0.53424072265625,0.0003662109375
1751389816120971500,9.450971435546874,0.11798095703125,0.579498291015625,0.064788818359375
1751389816131017500,9.461017578125,0.12744140625,0.59222412109375,0.0625152587890625
1751389816141062400,9.4710625,0.1760101318359375,0.5958251953125,0.0613250732421875
1751389816151108600,9.481108642578125,0.2140045166015625,0.6144256591796875,0.0630035400390625
1751389816161154600,9.491154541015625,0.2483978271484375,0.654876708984375,0.0674591064453125
1751389816171199500,9.501199462890625,0.2447967529296875,0.7355194091796875,0.0796356201171875
1751389816181245400,9.511245361328125,0.2555389404296875,0.855560302734375,0.10772705078125
1751389816191291600,9.521291748046876,0.27838134765625,0.988037109375,0.1435546875
1751389816201336600,9.531336669921876,0.2981414794921875,1.1114654541015625,0.1850433349609375
1751389816211382500,9.541382568359374,0.3093109130859375,1.203155517578125,0.2350921630859375
1751389816221428700,9.5514287109375,0.2777099609375,1.22564697265625,0.2831878662109375
1751389816231473400,9.561473388671875,0.208709716796875,1.1783905029296875,0.3073883056640625
1751389816241519400,9.571519287109375,0.1385955810546875,1.10736083984375,0.330108642578125
1751389816251565600,9.581565673828125,0.0753326416015625,1.029541015625,0.35552978515625
1751389816261611500,9.591611572265625,0.0347900390625,0.95074462890625,0.3726959228515625
1751389816271656400,9.601656494140625,-0.004180908203125,0.8716583251953125,0.39947509765625
1751389816281702400,9.611702392578126,-0.0422515869140625,0.7952728271484375,0.4379425048828125
1751389816291748600,9.62174853515625,-0.034027099609375,0.738616943359375,0.4467620849609375
1751389816301793500,9.63179345703125,0.0005035400390625,0.7056884765625,0.444305419921875
1751389816311839500,9.641839599609375,0.0218048095703125,0.6909027099609375,0.442474365234375
1751389816321885700,9.6518857421875,0.023040771484375,0.6802215576171875,0.4403533935546875
1751389816331930600,9.6619306640625,0.0235595703125,0.670135498046875,0.43988037109375
1751389816341976600,9.6719765625,0.0346527099609375,0.6645660400390625,0.426177978515625
1751389816352022500,9.6820224609375,0.0497589111328125,0.6634979248046875,0.409088134765625
1751389816362067500,9.6920673828125,0.071380615234375,0.678314208984375,0.406890869140625
1751389816372113400,9.702113525390626,0.083770751953125,0.715545654296875,0.4262542724609375
1751389816382159400,9.712159423828124,0.080535888671875,0.7639007568359375,0.45953369140625
1751389816392205600,9.72220556640625,0.0935516357421875,0.8116455078125,0.49371337890625
1751389816402250500,9.73225048828125,0.1168060302734375,0.85540771484375,0.5321502685546875
1751389816412296400,9.74229638671875,0.1386871337890625,0.8866729736328125,0.5665130615234375
1751389816422342700,9.7523427734375,0.165313720703125,0.9219207763671875,0.5998687744140625
1751389816432387600,9.7623876953125,0.166259765625,0.9643096923828125,0.6059722900390625
1751389816442433500,9.77243359375,0.122406005859375,0.973724365234375,0.57366943359375
1751389816452479500,9.7824794921875,0.0713348388671875,0.9711761474609375,0.5782928466796875
1751389816462524700,9.792524658203124,0.039154052734375,0.9660186767578125,0.6002960205078125
1751389816472570600,9.802570556640624,-0.000152587890625,0.95440673828125,0.614654541015625
1751389816482616600,9.812616455078125,-0.05615234375,0.94488525390625,0.644317626953125
1751389816492661500,9.82266162109375,-0.0473785400390625,0.9384613037109375,0.6930084228515625
1751389816502707500,9.83270751953125,0.014404296875,0.9572601318359375,0.7631988525390625
1751389816512753400,9.84275341796875,0.0743865966796875,0.9744110107421875,0.860626220703125
1751389816522798600,9.852798583984375,0.109619140625,0.97186279296875,0.9661865234375
1751389816532844500,9.862844482421876,0.09844970703125,0.95135498046875,1.0353546142578125
1751389816542890500,9.872890380859374,0.0401153564453125,0.931488037109375,1.0219268798828125
1751389816552935700,9.882935791015624,-0.0231475830078125,0.9218292236328125,0.9777069091796875
1751389816562981600,9.892981689453125,-0.047454833984375,0.895538330078125,0.9512176513671875
1751389816573027600,9.903027587890625,-0.050567626953125,0.8560638427734375,0.9415130615234375
1751389816583073500,9.913073486328125,-0.0428466796875,0.8118896484375,0.9507293701171875
1751389816593118700,9.92311865234375,0.0183563232421875,0.7579345703125,0.95880126953125
1751389816603164400,9.933164306640625,0.1147613525390625,0.6975250244140625,0.923797607421875
1751389816613210400,9.94321044921875,0.18927001953125,0.6632843017578125,0.8752593994140625
1751389816623255600,9.953255615234376,0.165985107421875,0.6674346923828125,0.810394287109375
1751389816633301500,9.963301513671874,0.06597900390625,0.7445068359375,0.70001220703125
1751389816643347500,9.973347412109375,0.02593994140625,0.8718109130859375,0.597412109375
1751389816653392600,9.983392578125,0.0095062255859375,0.999053955078125,0.5382080078125
1751389816663438600,9.9934384765625,-0.023040771484375,1.1341705322265625,0.521209716796875
1751389816673484500,10.003484619140625,-0.09613037109375,1.29736328125,0.5255279541015625
1751389816683529700,10.01352978515625,-0.3124847412109375,1.537139892578125,0.52532958984375
1751389816693575700,10.02357568359375,-0.472076416015625,1.759429931640625,0.5800933837890625
1751389816703621600,10.03362158203125,-0.453094482421875,1.934967041015625,0.6826629638671875
1751389816713666600,10.04366650390625,-0.31939697265625,2.1101531982421875,0.77978515625
1751389816723712500,10.05371240234375,-0.1891937255859375,2.2698822021484375,0.84063720703125
1751389816733758500,10.063758544921875,-0.1060638427734375,2.3561248779296875,0.8311920166015625
1751389816743804400,10.073804443359375,-0.0284881591796875,2.264678955078125,0.742462158203125
1751389816753849600,10.083849609375,0.0341339111328125,1.9795684814453125,0.6005706787109375
1751389816763895600,10.0938955078125,0.080810546875,1.6359100341796875,0.4407958984375
1751389816773941500,10.10394140625,0.0923919677734375,1.358245849609375,0.341217041015625
1751389816783986700,10.113986572265626,0.091949462890625,1.13470458984375,0.26824951171875
1751389816794032600,10.12403271484375,0.0469818115234375,0.903472900390625,0.199462890625
1751389816804078600,10.13407861328125,0.0135650634765625,0.6982879638671875,0.141845703125
1751389816814123500,10.14412353515625,0.0129241943359375,0.518798828125,0.0874786376953125
1751389816824169700,10.154169677734375,0.0125732421875,0.38043212890625,0.0477142333984375
1751389816834215700,10.164215576171875,0.0275726318359375,0.2827911376953125,0.021148681640625
1751389816844260400,10.17426025390625,0.0543670654296875,0.213958740234375,0.004638671875
1751389816854306600,10.184306640625,0.0891265869140625,0.1655731201171875,-0.0096588134765625
1751389816864352500,10.1943525390625,0.1283416748046875,0.124237060546875,-0.0324554443359375
1751389816874397400,10.2043974609375,0.147247314453125,0.084808349609375,-0.0583953857421875
1751389816884444000,10.21444384765625,0.1666717529296875,0.059906005859375,-0.07537841796875
1751389816894490000,10.224489990234375,0.204132080078125,0.0565338134765625,-0.0914764404296875
1751389816904535000,10.23453515625,0.2434234619140625,0.0782623291015625,-0.1024017333984375
1751389816914581000,10.2445810546875,0.2733306884765625,0.122222900390625,-0.116302490234375
1751389816924627000,10.254626953125,0.297454833984375,0.177459716796875,-0.133544921875
1751389816934672100,10.264672119140625,0.3054656982421875,0.248382568359375,-0.138153076171875
1751389816944718000,10.274718017578126,0.3001861572265625,0.3347015380859375,-0.117645263671875
1751389816954764000,10.284763916015624,0.239501953125,0.431915283203125,-0.0744781494140625
1751389816964810000,10.29481005859375,0.121490478515625,0.5378875732421875,-0.0372161865234375
1751389816974855000,10.30485498046875,-0.0808563232421875,0.678009033203125,0.006439208984375
1751389816984900900,10.31490087890625,-0.4592437744140625,0.9301300048828125,0.1061248779296875
1751389816994947000,10.324947021484375,-1.1444091796875,1.3042144775390625,0.4410247802734375
1751389817004992000,10.334991943359375,-0.9918975830078125,1.2739105224609375,0.9252166748046875
1751389817015038000,10.345037841796875,-0.6250762939453125,1.2645416259765625,1.1549530029296875
1751389817025084000,10.355083984375,-0.570343017578125,1.426727294921875,1.4673919677734375
1751389817035129000,10.365129150390626,-0.41790771484375,1.61236572265625,1.84344482421875
1751389817045175000,10.375175048828124,-0.189971923828125,1.68109130859375,2.0284423828125
1751389817055221000,10.385220947265625,-0.1062164306640625,1.6585845947265625,2.144927978515625
1751389817065266000,10.395265869140625,-0.0365447998046875,1.4240264892578125,1.9859619140625
1751389817075311900,10.405311767578125,-0.0198822021484375,1.0382232666015625,1.4686737060546875
1751389817085357800,10.41535791015625,-0.0020294189453125,0.90087890625,0.9654541015625
1751389817095403000,10.425403076171875,0.0330963134765625,1.1013031005859375,0.6448516845703125
1751389817105449000,10.435448974609375,0.1138458251953125,1.374481201171875,0.568115234375
1751389817115495000,10.445494873046876,0.13232421875,1.625457763671875,0.582977294921875
1751389817125540900,10.455540771484374,0.1676788330078125,1.6358795166015625,0.651824951171875
1751389817135586000,10.4655859375,0.1942291259765625,1.4086456298828125,0.5968475341796875
1751389817145632000,10.475632080078125,0.174530029296875,1.18353271484375,0.414947509765625
1751389817155677200,10.48567724609375,0.07696533203125,0.9424591064453125,0.2957611083984375
1751389817165723100,10.49572314453125,-0.230194091796875,0.6667938232421875,0.2016754150390625
1751389817175769000,10.50576904296875,-0.3032073974609375,0.512115478515625,0.02801513671875
1751389817185815000,10.51581494140625,-0.0421295166015625,0.538665771484375,-0.000518798828125
1751389817195860000,10.52585986328125,0.1555938720703125,0.5644683837890625,0.0624542236328125
1751389817205906000,10.535906005859376,0.2099151611328125,0.5500030517578125,0.065216064453125
1751389817215952000,10.545951904296874,0.244842529296875,0.5308685302734375,0.055267333984375
1751389817225997000,10.5559970703125,0.255157470703125,0.5284271240234375,0.0523223876953125
1751389817236043000,10.56604296875,0.2368927001953125,0.5619659423828125,0.0479583740234375
1751389817246089000,10.5760888671875,0.2159271240234375,0.6259765625,0.0549163818359375
1751389817256134100,10.586134033203125,0.216552734375,0.7275390625,0.0707244873046875
1751389817266180000,10.59618017578125,0.2348480224609375,0.856658935546875,0.0965728759765625
1751389817276226000,10.60622607421875,0.274017333984375,0.99285888671875,0.1251068115234375
1751389817286271000,10.61627099609375,0.300445556640625,1.11566162109375,0.16455078125
1751389817296317200,10.626317138671874,0.271270751953125,1.1819610595703125,0.217559814453125
1751389817306363100,10.636363037109374,0.2028961181640625,1.1804656982421875,0.261016845703125
1751389817316407800,10.64640771484375,0.1324310302734375,1.141082763671875,0.291473388671875
1751389817326454000,10.6564541015625,0.0700225830078125,1.0747833251953125,0.31121826171875
1751389817336500000,10.6665,0.0280609130859375,0.9962158203125,0.322662353515625
1751389817346545000,10.676544921875,-0.0009765625,0.90631103515625,0.3309783935546875
1751389817356591000,10.686591064453125,-0.049163818359375,0.8192291259765625,0.3568115234375
1751389817366637000,10.696636962890626,-0.073089599609375,0.749420166015625,0.37139892578125
1751389817376683000,10.70668310546875,-0.0512237548828125,0.706695556640625,0.36602783203125
1751389817386728000,10.71672802734375,-0.0174102783203125,0.6819915771484375,0.3601837158203125
1751389817396774100,10.726774169921875,-0.0006103515625,0.664398193359375,0.3662261962890625
1751389817406820000,10.736820068359375,0.006011962890625,0.6583099365234375,0.3738861083984375
1751389817416865000,10.746864990234375,0.0142364501953125,0.6601409912109375,0.3695220947265625
1751389817426911200,10.7569111328125,0.0334014892578125,0.6700439453125,0.3680877685546875
1751389817436957200,10.766957275390626,0.064453125,0.6956024169921875,0.3778076171875
1751389817447001900,10.777001953125,0.0844879150390625,0.73992919921875,0.3988800048828125
1751389817457048000,10.787048095703126,0.0870819091796875,0.7993316650390625,0.443389892578125
1751389817467094000,10.797093994140624,0.0879058837890625,0.8615264892578125,0.4993133544921875
1751389817477139000,10.807138916015624,0.0723876953125,0.9166717529296875,0.5545501708984375
1751389817487185000,10.817184814453125,0.0554046630859375,0.9568023681640625,0.6016693115234375
1751389817497231000,10.827231201171875,0.0447998046875,0.970062255859375,0.614166259765625
1751389817507276000,10.837276123046875,0.0413055419921875,0.9634552001953125,0.593475341796875
1751389817517322000,10.847322021484375,0.0347747802734375,0.958221435546875,0.585540771484375
1751389817527368200,10.8573681640625,0.0413970947265625,0.96942138671875,0.609954833984375
1751389817537413000,10.8674130859375,0.0813751220703125,0.9975128173828125,0.671417236328125
1751389817547459000,10.877458984375,0.1234588623046875,1.0188446044921875,0.7513580322265625
1751389817557504800,10.8875048828125,0.1216583251953125,1.020294189453125,0.8137969970703125
1751389817567550000,10.897550048828125,0.0899658203125,1.029022216796875,0.873626708984375
1751389817577596000,10.907595947265625,0.068267822265625,1.0361328125,0.9447479248046875
1751389817587641900,10.917641845703125,0.073883056640625,1.0247802734375,0.997589111328125
1751389817597687000,10.92768701171875,0.0988311767578125,0.9886627197265625,1.0272216796875
1751389817607733000,10.93773291015625,0.1555633544921875,0.9226531982421875,1.058624267578125
1751389817617779000,10.947779052734376,0.187591552734375,0.8527679443359375,1.0681915283203125
1751389817627825000,10.957824951171874,0.1300048828125,0.8027191162109375,1.0156097412109375
1751389817637870000,10.9678701171875,0.056976318359375,0.7490997314453125,0.9403839111328125
1751389817647916000,10.977916015625,0.0327911376953125,0.6767730712890625,0.876617431640625
1751389817657962000,10.9879619140625,0.0634307861328125,0.5903778076171875,0.8453826904296875
1751389817668007000,10.9980068359375,0.054168701171875,0.4971160888671875,0.8821868896484375
1751389817678052900,11.008052978515625,-0.0973663330078125,0.42877197265625,0.9073486328125
1751389817688098800,11.018098876953125,-0.241485595703125,0.4428253173828125,0.824951171875
1751389817698144000,11.02814404296875,-0.361297607421875,0.567596435546875,0.7118377685546875
1751389817708190000,11.03818994140625,-0.384918212890625,0.7831573486328125,0.5816650390625
1751389817718236000,11.04823583984375,-0.314422607421875,0.93505859375,0.5243682861328125
1751389817728281000,11.058281005859374,-0.2270355224609375,1.0655517578125,0.541168212890625
1751389817738327000,11.0683271484375,-0.1556243896484375,1.23541259765625,0.595977783203125
1751389817748373000,11.078373046875,-0.101654052734375,1.4412689208984375,0.649658203125
1751389817758418200,11.088418212890625,-0.0821990966796875,1.663818359375,0.723876953125
1751389817768464100,11.098464111328125,-0.0723876953125,1.8706512451171875,0.83111572265625
1751389817778510000,11.108510009765626,-0.0157928466796875,2.0862884521484375,0.9320220947265625
1751389817788555000,11.118554931640626,0.07757568359375,2.3222503662109375,1.0099639892578125
1751389817798601000,11.12860107421875,0.13623046875,2.540740966796875,1.04388427734375
1751389817808647000,11.13864697265625,-0.019012451171875,2.6171112060546875,0.9528961181640625
1751389817818692000,11.148692138671874,-0.098358154296875,2.3718109130859375,0.763031005859375
1751389817828738000,11.158738037109375,-0.1685028076171875,1.9641265869140625,0.56756591796875
1751389817838784000,11.168783935546875,-0.2285308837890625,1.602874755859375,0.398590087890625
1751389817848830000,11.178829833984375,-0.24359130859375,1.2999114990234375,0.2864990234375
1751389817858875100,11.188875244140625,-0.2417755126953125,1.0352325439453125,0.191162109375
1751389817868921000,11.198921142578126,-0.203277587890625,0.8155517578125,0.1337890625
1751389817878967000,11.208967041015624,-0.0966949462890625,0.658966064453125,0.1017608642578125
1751389817889012200,11.21901220703125,-0.0027618408203125,0.5364837646484375,0.07696533203125
1751389817899058400,11.229058349609375,0.0621490478515625,0.4373016357421875,0.0559234619140625
1751389817909104400,11.2391044921875,0.1331634521484375,0.3577117919921875,0.038818359375
1751389817919149300,11.2491494140625,0.2028350830078125,0.2987823486328125,0.016632080078125
1751389817929195500,11.259195556640625,0.250213623046875,0.24237060546875,-0.00830078125
1751389817939241500,11.269241455078125,0.2810211181640625,0.1927032470703125,-0.0295867919921875
1751389817949286400,11.279286376953126,0.3038330078125,0.1482696533203125,-0.0487213134765625
1751389817959332400,11.289332275390626,0.3361053466796875,0.11541748046875,-0.0655364990234375
1751389817969378600,11.299378662109374,0.360931396484375,0.0934295654296875,-0.0836639404296875
1751389817979423200,11.30942333984375,0.3514404296875,0.08258056640625,-0.1067352294921875
1751389817989469200,11.31946923828125,0.325958251953125,0.0822296142578125,-0.13897705078125
1751389817999515400,11.329515380859375,0.296142578125,0.099517822265625,-0.1735382080078125
1751389818009560300,11.339560302734375,0.2612762451171875,0.1502532958984375,-0.19476318359375
1751389818019606300,11.349606201171875,0.2178955078125,0.2292938232421875,-0.19854736328125
1751389818029652500,11.359652587890626,0.130615234375,0.353790283203125,-0.17181396484375
1751389818039697400,11.369697509765626,-0.0681304931640625,0.5381622314453125,-0.0984039306640625
1751389818049743400,11.379743408203124,-0.4776763916015625,0.812652587890625,0.033050537109375
1751389818059789300,11.389789306640624,-1.2438812255859375,1.1580047607421875,0.427276611328125
1751389818069834500,11.39983447265625,-1.1696929931640625,1.167144775390625,0.85394287109375
1751389818079880400,11.40988037109375,-0.755828857421875,1.20013427734375,0.9940185546875
1751389818089926400,11.419926513671875,-0.5586090087890625,1.3145599365234375,1.1723175048828125
1751389818099972600,11.42997265625,-0.430694580078125,1.5049591064453125,1.517059326171875
1751389818110017300,11.440017333984375,-0.2209625244140625,1.6764373779296875,1.887969970703125
1751389818120063200,11.450063232421876,-0.0578460693359375,1.7017669677734375,2.139312744140625
1751389818130109200,11.460109130859376,0.0031890869140625,1.5701751708984375,2.199066162109375
1751389818140154400,11.470154296875,0.0323638916015625,1.145416259765625,1.781219482421875
1751389818150200300,11.480200439453125,0.0486907958984375,0.756744384765625,1.0890350341796875
1751389818160246300,11.490246337890625,0.0659637451171875,0.6545562744140625,0.6387786865234375
1751389818170291500,11.50029150390625,0.1278076171875,0.7949066162109375,0.4320068359375
1751389818180337400,11.51033740234375,0.23046875,1.06158447265625,0.4172821044921875
1751389818190383400,11.52038330078125,0.2031097412109375,1.3785247802734375,0.432281494140625
1751389818200428500,11.530428466796875,-0.03924560546875,1.789306640625,0.3888397216796875
1751389818210474500,11.540474609375,-0.1564483642578125,1.8535919189453125,0.5739288330078125
1751389818220520400,11.5505205078125,-0.106842041015625,1.5062103271484375,0.5284423828125
1751389818230565400,11.5605654296875,-0.1488037109375,1.261505126953125,0.356414794921875
1751389818240611300,11.570611328125,-0.2479248046875,1.043426513671875,0.26226806640625
1751389818250657300,11.5806572265625,-0.23406982421875,0.881378173828125,0.1666412353515625
1751389818260702500,11.590702392578125,-0.029937744140625,0.8294677734375,0.13690185546875
1751389818270748400,11.60074853515625,0.092987060546875,0.7764739990234375,0.16217041015625
1751389818280794400,11.61079443359375,0.1314544677734375,0.7075347900390625,0.1531219482421875
1751389818290839600,11.620839599609376,0.1769866943359375,0.62200927734375,0.1259613037109375
1751389818300885500,11.630885498046876,0.208038330078125,0.5517578125,0.1097564697265625
1751389818310931500,11.640931396484374,0.1912689208984375,0.5055694580078125,0.09136962890625
1751389818320976400,11.650976318359374,0.1804962158203125,0.499664306640625,0.0691070556640625
1751389818331022600,11.661022705078125,0.180084228515625,0.53887939453125,0.05804443359375
1751389818341068300,11.671068359375,0.204620361328125,0.61773681640625,0.060577392578125
1751389818351113200,11.68111328125,0.2478179931640625,0.7335205078125,0.0887908935546875
1751389818361159400,11.691159423828125,0.274810791015625,0.8650970458984375,0.1341705322265625
1751389818371205400,11.701205322265626,0.288055419921875,0.9629669189453125,0.182373046875
1751389818381251300,11.711251220703126,0.268463134765625,1.01983642578125,0.2270965576171875
1751389818391296500,11.721296630859374,0.2189788818359375,1.050628662109375,0.2686920166015625
1751389818401342500,11.731342529296874,0.17333984375,1.0594635009765625,0.3125152587890625
1751389818411388400,11.741388427734375,0.1040802001953125,1.050201416015625,0.3706512451171875
1751389818421433300,11.751433349609375,0.0228118896484375,1.0121307373046875,0.4369354248046875
1751389818431479600,11.7614794921875,0.017669677734375,0.9496917724609375,0.44207763671875
1751389818441525500,11.771525390625,0.04730224609375,0.8917999267578125,0.410308837890625
1751389818451570200,11.781570068359375,0.0610504150390625,0.8515167236328125,0.3924713134765625
1751389818461616400,11.791616455078126,0.057464599609375,0.8199615478515625,0.4047698974609375
1751389818471662300,11.801662353515624,0.053985595703125,0.791717529296875,0.431854248046875
1751389818481707300,11.811707275390624,0.0548095703125,0.769134521484375,0.455322265625
1751389818491753200,11.821753173828125,0.05242919921875,0.7589569091796875,0.4670562744140625
1751389818501799400,11.83179931640625,0.0496978759765625,0.75836181640625,0.4726409912109375
1751389818511844400,11.84184423828125,0.0523223876953125,0.7676239013671875,0.4742889404296875
1751389818521890300,11.851890380859375,0.0657958984375,0.793975830078125,0.486968994140625
1751389818531936500,11.8619365234375,0.0813751220703125,0.83416748046875,0.5135955810546875
1751389818541981400,11.8719814453125,0.0897979736328125,0.8678436279296875,0.545623779296875
1751389818552027400,11.88202734375,0.0843658447265625,0.8802947998046875,0.5614776611328125
1751389818562073300,11.8920732421875,0.0638580322265625,0.871856689453125,0.5616302490234375
1751389818572118300,11.9021181640625,0.0309600830078125,0.8495330810546875,0.560821533203125
1751389818582164200,11.912164306640625,0.010833740234375,0.8258056640625,0.5404815673828125
1751389818592210200,11.922210205078125,0.000579833984375,0.81036376953125,0.5158843994140625
1751389818602255400,11.93225537109375,-0.00872802734375,0.811553955078125,0.5283660888671875
1751389818612301300,11.94230126953125,-0.0136260986328125,0.84478759765625,0.5896148681640625
1751389818622347300,11.95234716796875,0.0150604248046875,0.8934173583984375,0.66668701171875
1751389818632393500,11.9623935546875,0.054779052734375,0.9320526123046875,0.74066162109375
1751389818642438400,11.9724384765625,0.0758056640625,0.96514892578125,0.826263427734375
1751389818652484400,11.982484375,0.0912017822265625,0.98828125,0.918975830078125
1751389818662530300,11.9925302734375,0.1235504150390625,0.9800872802734375,1.0050048828125
1751389818672575500,12.002575439453125,0.17523193359375,0.9276275634765625,1.063507080078125
1751389818682621400,12.012621337890625,0.1872100830078125,0.8397216796875,1.06829833984375
1751389818692667400,12.02266748046875,0.112518310546875,0.752899169921875,0.9871978759765625
1751389818702712300,12.03271240234375,0.0258941650390625,0.7179412841796875,0.879791259765625
1751389818712758300,12.04275830078125,-0.0152435302734375,0.70111083984375,0.8293609619140625
1751389818722804200,12.05280419921875,-0.037811279296875,0.6481170654296875,0.8916015625
1751389818732849400,12.062849365234374,-0.1590576171875,0.5699310302734375,1.076263427734375
1751389818742895400,12.072895263671874,-0.240966796875,0.563751220703125,1.03497314453125
1751389818752941300,12.08294140625,-0.2574615478515625,0.6046905517578125,0.933013916015625
1751389818762986500,12.092986572265625,-0.2381744384765625,0.68316650390625,0.826202392578125
1751389818773032400,12.103032470703125,-0.1583099365234375,0.8010711669921875,0.7227630615234375
1751389818783078400,12.113078369140625,-0.0810089111328125,0.9138946533203125,0.6803436279296875
1751389818793123600,12.12312353515625,-0.0537109375,1.02508544921875,0.6762847900390625
1751389818803169500,12.13316943359375,-0.04229736328125,1.14056396484375,0.6959381103515625
1751389818813215500,12.143215576171874,-0.010223388671875,1.27667236328125,0.695159912109375
1751389818823260400,12.153260498046874,0.0296173095703125,1.4240264892578125,0.6624603271484375
1751389818833306400,12.163306396484375,0.070709228515625,1.5788726806640625,0.6891021728515625
1751389818843352300,12.173352294921875,0.0726776123046875,1.7240142822265625,0.7617645263671875
1751389818853397200,12.183397216796875,0.1089019775390625,1.870147705078125,0.81915283203125
1751389818863443500,12.193443359375,0.1764678955078125,2.033050537109375,0.866729736328125
1751389818873489400,12.203489501953126,0.2610321044921875,2.1899871826171875,0.8595123291015625
1751389818883534300,12.213534423828126,0.189971923828125,2.2789306640625,0.795318603515625
1751389818893580800,12.223580810546874,0.0952606201171875,2.213531494140625,0.7135467529296875
1751389818903627000,12.233626953125,0.010162353515625,1.9554290771484375,0.567779541015625
1751389818913672000,12.243671875,-0.1389923095703125,1.644866943359375,0.4014892578125
1751389818923718000,12.2537177734375,-0.2531585693359375,1.3873443603515625,0.27557373046875
1751389818933764000,12.26376416015625,-0.4552001953125,1.1031036376953125,0.1462860107421875
1751389818943810000,12.27381005859375,-0.5815582275390625,0.8431396484375,0.0575103759765625
1751389818953854700,12.283854736328125,-0.37042236328125,0.7098846435546875,0.072998046875
1751389818963901000,12.29390087890625,-0.1706390380859375,0.6333160400390625,0.0990753173828125
1751389818973947000,12.30394677734375,-0.0186614990234375,0.55999755859375,0.1162261962890625
1751389818983991800,12.31399169921875,0.0810699462890625,0.49951171875,0.1259613037109375
1751389818994037800,12.324037841796875,0.1508636474609375,0.428192138671875,0.1234283447265625
1751389819004084000,12.334083984375,0.2024078369140625,0.3644866943359375,0.117156982421875
1751389819014129000,12.34412890625,0.235565185546875,0.314056396484375,0.10638427734375
1751389819024174800,12.3541748046875,0.2671356201171875,0.26641845703125,0.097137451171875
1751389819034221000,12.364220947265625,0.2967681884765625,0.2309417724609375,0.087677001953125
1751389819044266000,12.374265869140626,0.3019866943359375,0.219146728515625,0.076568603515625
1751389819054312000,12.38431201171875,0.2936553955078125,0.242218017578125,0.043670654296875
1751389819064358000,12.39435791015625,0.2564849853515625,0.3230133056640625,0.0082855224609375
1751389819074402800,12.40440283203125,0.2046661376953125,0.403167724609375,-0.010833740234375
1751389819084448800,12.41444873046875,0.1732635498046875,0.48345947265625,-0.011260986328125
1751389819094494700,12.42449462890625,0.1437225341796875,0.5803375244140625,0.0304107666015625
1751389819104540000,12.434539794921875,0.0782928466796875,0.6617279052734375,0.0809783935546875
1751389819114585900,12.4445859375,-0.0140380859375,0.7372894287109375,0.1166839599609375
1751389819124631800,12.4546318359375,-0.1229400634765625,0.8329315185546875,0.1671905517578125
1751389819134677000,12.464677001953126,-0.2278289794921875,0.959564208984375,0.2661285400390625
1751389819144723000,12.474722900390624,-0.313995361328125,1.0758819580078125,0.47589111328125
1751389819154769000,12.484768798828124,-0.4212493896484375,1.0717926025390625,0.73919677734375
1751389819164814000,12.49481396484375,-0.4781341552734375,1.0282440185546875,0.9229736328125
1751389819174860000,12.504860107421875,-0.460845947265625,1.0296173095703125,1.0731658935546875
1751389819184905700,12.51490576171875,-0.465972900390625,1.090728759765625,1.279876708984375
1751389819194951000,12.524950927734375,-0.457061767578125,1.183258056640625,1.4829864501953125
1751389819204996900,12.534996826171875,-0.438751220703125,1.226226806640625,1.5848236083984375
1751389819215042800,12.545042724609376,-0.4012603759765625,1.13262939453125,1.5417938232421875
1751389819225088800,12.5550888671875,-0.341156005859375,0.9437103271484375,1.3523712158203125
1751389819235134000,12.565134033203124,-0.2297210693359375,0.701751708984375,1.0499114990234375
1751389819245180000,12.575179931640625,-0.0896453857421875,0.53741455078125,0.7606048583984375
1751389819255225900,12.585225830078125,-0.0046539306640625,0.5197296142578125,0.5746917724609375
1751389819265271000,12.59527099609375,0.068206787109375,0.626922607421875,0.436065673828125
1751389819275317000,12.60531689453125,0.1483612060546875,0.8177337646484375,0.3830718994140625
1751389819285363000,12.615363037109375,0.1549072265625,1.072113037109375,0.4341583251953125
1751389819295407900,12.625407958984376,0.029449462890625,1.4010009765625,0.516845703125
1751389819305453800,12.635453857421876,-0.091644287109375,1.659820556640625,0.7275238037109375
1751389819315499800,12.645499755859374,-0.069488525390625,1.6413421630859375,0.9124908447265625
1751389819325545000,12.655544921875,-0.0532989501953125,1.4593353271484375,0.8810272216796875
1751389819335591000,12.6655908203125,-0.0750579833984375,1.227264404296875,0.7003936767578125
1751389819345636900,12.675636962890625,-0.1085357666015625,1.0161285400390625,0.46929931640625
1751389819355681800,12.685681884765625,-0.14422607421875,0.855560302734375,0.26025390625
1751389819365728000,12.69572802734375,-0.161895751953125,0.785614013671875,0.1352691650390625
1751389819375774000,12.70577392578125,-0.1600189208984375,0.7391815185546875,0.090667724609375
1751389819385819000,12.71581884765625,-0.151641845703125,0.6690673828125,0.0817413330078125
1751389819395865000,12.725864990234374,-0.0770263671875,0.59210205078125,0.0951995849609375
1751389819405911000,12.7359111328125,0.0337677001953125,0.55059814453125,0.109588623046875
1751389819415955700,12.745955810546874,0.10650634765625,0.574493408203125,0.10882568359375
1751389819426001700,12.756001708984375,0.16314697265625,0.6835784912109375,0.15924072265625
1751389819436048000,12.7660478515625,0.2184906005859375,0.8573150634765625,0.27490234375
1751389819446092800,12.7760927734375,0.255462646484375,1.0352935791015625,0.3963623046875
1751389819456138800,12.786138671875,0.264404296875,1.17303466796875,0.5025482177734375
1751389819466185000,12.79618505859375,0.1391448974609375,1.2519378662109375,0.5621490478515625
1751389819476230000,12.80622998046875,-0.164215087890625,1.197174072265625,0.505462646484375
1751389819486275800,12.81627587890625,-0.1734619140625,1.0178070068359375,0.3668212890625
1751389819496321800,12.82632177734375,-0.06072998046875,0.9322662353515625,0.3447723388671875
1751389819506367000,12.836366943359375,0.018035888671875,0.910919189453125,0.3803863525390625
1751389819516413000,12.846412841796875,0.0569915771484375,0.8737640380859375,0.40850830078125
1751389819526459000,12.856458984375,0.0547027587890625,0.809356689453125,0.3935394287109375
1751389819536505000,12.866505126953125,0.0280303955078125,0.7199859619140625,0.325042724609375
1751389819546549800,12.8765498046875,-0.0001373291015625,0.6565704345703125,0.265167236328125
1751389819556595700,12.886595703125,-0.0054779052734375,0.62469482421875,0.234832763671875
1751389819566642000,12.896641845703124,0.011962890625,0.6130828857421875,0.21087646484375
1751389819576686800,12.906686767578124,0.030242919921875,0.61138916015625,0.1908416748046875
1751389819586732800,12.91673291015625,0.0474090576171875,0.6305389404296875,0.1953125
1751389819596778800,12.92677880859375,0.040435791015625,0.696624755859375,0.251190185546875
1751389819606824000,12.936823974609375,0.022430419921875,0.7917938232421875,0.3357696533203125
1751389819616870000,12.946869873046875,0.0074920654296875,0.873443603515625,0.406280517578125
1751389819626915800,12.956915771484375,-0.0064544677734375,0.9318389892578125,0.454864501953125
1751389819636961000,12.9669609375,-0.02374267578125,0.9658660888671875,0.472015380859375
1751389819647007000,12.977007080078126,-0.051055908203125,0.982513427734375,0.4610748291015625
1751389819657053000,12.987052978515624,-0.0897064208984375,1.015533447265625,0.4598388671875
1751389819667097900,12.997097900390624,-0.1438446044921875,1.04534912109375,0.4688568115234375
1751389819677143800,13.007143798828125,-0.1928863525390625,1.0086669921875,0.4752197265625
1751389819687189800,13.017189697265625,-0.20733642578125,0.8939971923828125,0.4566650390625
1751389819697235000,13.02723486328125,-0.176788330078125,0.80859375,0.426483154296875
1751389819707281000,13.037281005859375,-0.120025634765625,0.7877197265625,0.407684326171875
1751389819717326800,13.047326904296876,-0.0614471435546875,0.8189239501953125,0.417755126953125
1751389819727372000,13.0573720703125,-0.0205078125,0.87652587890625,0.459075927734375
1751389819737418000,13.06741796875,-0.00067138671875,0.9274139404296875,0.525360107421875
1751389819747464000,13.0774638671875,0.0077972412109375,0.945526123046875,0.60076904296875
1751389819757509000,13.087509033203125,0.003143310546875,0.9398345947265625,0.6751708984375
1751389819767555000,13.09755517578125,-0.0045013427734375,0.913482666015625,0.7256622314453125
1751389819777600800,13.107600830078125,0.0052642822265625,0.872161865234375,0.6868133544921875
1751389819787646700,13.117646728515625,0.0228729248046875,0.81390380859375,0.56658935546875
1751389819797692000,13.12769189453125,0.0342559814453125,0.767578125,0.4396209716796875
1751389819807737900,13.13773779296875,0.05108642578125,0.7973785400390625,0.3695526123046875
