time,seconds_elapsed,z,y,x
1751389806703201800,0.033201904296875,-0.03774699568748474,-0.037615515291690826,-0.27108290791511536
1751389806713247700,0.043247802734375,-0.07662355154752731,-0.07231171429157257,-0.19988171756267548
1751389806723293000,0.05329296875,-0.0940384641289711,-0.04608505964279175,-0.1164502501487732
1751389806733339000,0.0633388671875,-0.09638897329568863,0.04486615210771561,-0.05149468779563904
1751389806743383800,0.0733837890625,-0.07987098395824432,0.14861255884170532,-0.010306606069207191
1751389806753430000,0.083429931640625,-0.0805724561214447,0.26958611607551575,-0.012723690830171108
1751389806763475000,0.093474853515625,-0.08257731050252914,0.34599143266677856,-0.030901722609996796
1751389806773521000,0.10352099609375,-0.06990145891904831,0.359967440366745,-0.06586609780788422
1751389806783566000,0.113566162109375,-0.05433047562837601,0.23150749504566193,-0.14613200724124908
1751389806793612000,0.123612060546875,-0.05724344402551651,0.08400993049144745,-0.2461579442024231
1751389806803656700,0.13365673828125,-0.03606226295232773,-0.07886121422052383,-0.31224873661994934
1751389806813703000,0.143702880859375,-0.025158215314149857,-0.19610129296779633,-0.2863644063472748
1751389806823748900,0.153748779296875,-0.03890411555767059,-0.23999425768852234,-0.1804036945104599
1751389806833793800,0.163793701171875,-0.052509672939777374,-0.21543776988983154,-0.031586792320013046
1751389806843840000,0.173840087890625,-0.040998976677656174,-0.15453234314918518,0.13136565685272217
1751389806853885000,0.183885009765625,-0.018551994115114212,-0.09197788685560226,0.24167963862419128
1751389806863931000,0.193930908203125,0.02013069950044155,-0.05254222825169563,0.2926516830921173
1751389806873975000,0.20397509765625,0.0460219532251358,-0.1117757260799408,0.2948506772518158
1751389806884021000,0.21402099609375,0.034456346184015274,-0.1520974040031433,0.23007507622241974
1751389806894066200,0.224066162109375,-0.051634594798088074,-0.08356760442256927,0.11068051308393478
1751389806904112000,0.234112060546875,-0.17018890380859375,0.07925688475370407,-0.012269782833755016
1751389806914156800,0.24415673828125,-0.2658661901950836,0.20194843411445618,-0.09484082460403442
1751389806924203000,0.254203125,-0.302559494972229,0.23640434443950653,-0.11070400476455688
1751389806934248000,0.264248046875,-0.23179130256175995,0.16857150197029114,-0.06247176229953766
1751389806944294000,0.2742939453125,-0.3623434603214264,0.03361988812685013,0.017566677182912827
1751389806954340000,0.284340087890625,-0.749894380569458,-0.08423351496458054,0.06973107159137726
1751389806964385000,0.294385009765625,-0.9991734027862549,-0.12161716818809509,0.07933489978313446
1751389806974431000,0.304430908203125,-1.2140830755233765,-0.1746191382408142,0.07172465324401855
1751389806984476200,0.31447607421875,-1.4906281232833862,-0.1805700659751892,0.05875508114695549
1751389806994522000,0.324522216796875,-1.8528704643249512,-0.1937343329191208,0.05031605437397957
1751389807004566800,0.33456689453125,-2.1672005653381348,-0.17890562117099762,0.03318644315004349
1751389807014613000,0.344613037109375,-2.199977159500122,0.15219959616661072,-0.11623713374137878
1751389807024658000,0.354657958984375,-2.001250743865967,0.6868278384208679,-0.35934069752693176
1751389807034704000,0.364703857421875,-1.6695022583007812,1.1011215448379517,-0.5618706345558167
1751389807044749000,0.3747490234375,-1.146954894065857,1.3732057809829712,-0.6152886748313904
1751389807054795000,0.384794921875,-0.6163837313652039,1.3307081460952759,-0.5902560353279114
1751389807064840200,0.394840087890625,-0.11348411440849304,1.0199639797210693,-0.5480484962463379
1751389807074886100,0.40488623046875,0.3113798201084137,0.6453369855880737,-0.49565666913986206
1751389807084932000,0.41493212890625,0.653454065322876,0.3313743770122528,-0.405570924282074
1751389807094977000,0.42497705078125,1.0048680305480957,0.16350683569908142,-0.2942180335521698
1751389807105023000,0.43502294921875,1.3187804222106934,0.08199057728052139,-0.2034088522195816
1751389807115068000,0.44506787109375,1.390773892402649,0.05228966847062111,-0.15453079342842102
1751389807125113900,0.45511376953125,1.21107017993927,0.09040791541337967,-0.17017629742622375
1751389807135159000,0.465158935546875,0.7985840439796448,0.15783622860908508,-0.3181479275226593
1751389807145205000,0.475205078125,0.36577436327934265,0.3727838397026062,-0.5429083704948425
1751389807155250200,0.485250244140625,-0.0008315783925354481,0.5836105942726135,-0.7847566604614258
1751389807165296000,0.495296142578125,-0.24007295072078705,0.6189367771148682,-0.9694889187812805
1751389807175340800,0.5053408203125,-0.3926126956939697,0.4503757357597351,-1.0713236331939697
1751389807185387000,0.515386962890625,-0.4977089762687683,0.16910234093666077,-1.1149407625198364
1751389807195433000,0.525432861328125,-0.5811253190040588,-0.027849866077303886,-1.1055773496627808
1751389807205478000,0.535477783203125,-0.6438068151473999,-0.04956198111176491,-1.0402164459228516
1751389807215523800,0.54552392578125,-0.6210362315177917,0.09288464486598969,-0.9104280471801758
1751389807225569000,0.555569091796875,-0.42386114597320557,0.3750489056110382,-0.7471811175346375
1751389807235615000,0.565614990234375,-0.02484557032585144,0.6148611903190613,-0.5989533066749573
1751389807245660200,0.57566015625,0.47556957602500916,0.6942182779312134,-0.5385717153549194
1751389807255706000,0.5857060546875,0.9735495448112488,0.6665962338447571,-0.5359753966331482
1751389807265751000,0.5957509765625,1.4712786674499512,0.5609832406044006,-0.562264621257782
1751389807275797000,0.605796875,1.9158233404159546,0.42528778314590454,-0.584521472454071
1751389807285842000,0.615842041015625,2.28794002532959,0.2914830446243286,-0.5865139365196228
1751389807295888000,0.625887939453125,2.568922281265259,0.17824488878250122,-0.5653710961341858
1751389807305933000,0.63593310546875,2.75595760345459,0.10500012338161469,-0.5033249258995056
1751389807315979000,0.64597900390625,2.7947933673858643,0.05905553326010704,-0.4034518599510193
1751389807326025000,0.65602490234375,2.6802895069122314,0.049153104424476624,-0.26868125796318054
1751389807336070100,0.666070068359375,2.4223198890686035,0.08131662756204605,-0.10663563013076782
1751389807346116000,0.6761162109375,2.052975654602051,0.14865118265151978,0.10274288803339005
1751389807356161000,0.6861611328125,1.6355777978897095,0.25095170736312866,0.35192397236824036
1751389807366207200,0.696207275390625,1.2158037424087524,0.3529196083545685,0.6096379160881042
1751389807376252000,0.706251953125,0.8413246273994446,0.41655078530311584,0.8434674143791199
1751389807386297900,0.7162978515625,0.540176510810852,0.4588140845298767,1.0277009010314941
1751389807396343000,0.726343017578125,0.34340354800224304,0.5715249180793762,1.153371810913086
1751389807406389000,0.736388916015625,0.2511415183544159,1.0886502265930176,1.1686347723007202
1751389807416434200,0.74643408203125,0.21669191122055054,2.0543460845947266,1.0277471542358398
1751389807426480000,0.756480224609375,0.2150561809539795,2.914402723312378,0.7858699560165405
1751389807436525000,0.766525146484375,0.20985449850559235,3.191497325897217,0.5413368940353394
1751389807446571000,0.776571044921875,0.16381539404392242,2.9756317138671875,0.3495159447193146
1751389807456617200,0.7866171875,0.10833828896284103,2.5503053665161133,0.22220540046691895
1751389807466662000,0.796661865234375,0.11053033918142319,2.086465358734131,0.14509797096252441
1751389807476707800,0.806707763671875,0.12554605305194855,1.6311829090118408,0.0888938158750534
1751389807486753000,0.8167529296875,0.14651262760162354,1.2559823989868164,0.03032134845852852
1751389807496799000,0.826799072265625,0.14469927549362183,1.0281955003738403,-0.07913963496685028
1751389807506844200,0.83684423828125,0.13248544931411743,0.9561174511909485,-0.249800443649292
1751389807516890000,0.84689013671875,0.09328079223632812,0.9360025525093079,-0.4453667402267456
1751389807526935000,0.85693505859375,0.01904248259961605,0.8323449492454529,-0.6021950244903564
1751389807536981000,0.86698095703125,-0.07046929001808167,0.5940042734146118,-0.6925827264785767
1751389807547026000,0.87702587890625,-0.1548573523759842,0.2649729549884796,-0.7025943994522095
1751389807557072000,0.88707177734375,-0.20261502265930176,-0.07884274423122406,-0.6445465683937073
1751389807567117800,0.897117919921875,-0.21604537963867188,-0.3949192464351654,-0.5539671182632446
1751389807577163000,0.9071630859375,-0.2014954686164856,-0.6411972045898438,-0.4447362422943115
1751389807587209000,0.917208984375,-0.17108507454395294,-0.7848310470581055,-0.33121544122695923
1751389807597254100,0.927254150390625,-0.1370679885149002,-0.8101707696914673,-0.22639741003513336
1751389807607300000,0.937300048828125,-0.1252448558807373,-0.7552850246429443,-0.14585094153881073
1751389807617345000,0.947344970703125,-0.14588674902915955,-0.645408034324646,-0.08598574995994568
1751389807627391000,0.957390869140625,-0.20718130469322205,-0.5298505425453186,-0.02943957969546318
1751389807637436000,0.967435791015625,-0.31242918968200684,-0.48302629590034485,0.0419139638543129
1751389807647481900,0.97748193359375,-0.43102213740348816,-0.5340686440467834,0.13233250379562378
1751389807657527000,0.987527099609375,-0.5094413161277771,-0.6520996689796448,0.21999923884868622
1751389807667573000,0.997572998046875,-0.5433022975921631,-0.7933365106582642,0.2777509093284607
1751389807677618000,1.007617919921875,-0.5283518433570862,-0.8700203895568848,0.28175845742225647
1751389807687664000,1.0176640625,-0.4617309868335724,-0.7538609504699707,0.19119670987129211
1751389807697710000,1.0277099609375,-0.36313119530677795,-0.35130441188812256,-0.024826928973197937
1751389807707755000,1.037755126953125,-0.2548113763332367,0.2521756589412689,-0.3064518868923187
1751389807717801200,1.04780126953125,-0.14075005054473877,0.8185881972312927,-0.5792416334152222
1751389807727846000,1.057845947265625,-0.006086484529078007,1.2512434720993042,-0.7842010259628296
1751389807737891800,1.067891845703125,0.1469917595386505,1.6077901124954224,-0.9100167751312256
1751389807747937000,1.07793701171875,0.28367769718170166,2.0894393920898438,-0.9804232120513916
1751389807757983000,1.08798291015625,0.37480440735816956,2.9425601959228516,-0.9961358308792114
1751389807768028000,1.09802783203125,0.44948211312294006,4.075867652893066,-0.8379421234130859
1751389807778074000,1.10807421875,0.7957838773727417,3.918823003768921,0.46537697315216064
1751389807788119000,1.118119140625,1.5880073308944702,1.2499794960021973,2.794811487197876
1751389807798165000,1.1281650390625,2.083834648132324,-0.3097950518131256,3.873274803161621
1751389807808211200,1.138211181640625,2.204073190689087,-0.6592338681221008,4.007482528686523
1751389807818256000,1.148255859375,2.1837007999420166,-0.5270012617111206,3.7238543033599854
1751389807828301800,1.1583017578125,2.062821388244629,-0.19364231824874878,3.1732730865478516
1751389807838347000,1.168346923828125,1.9238392114639282,0.2016775906085968,2.446887731552124
1751389807848393000,1.17839306640625,1.822832703590393,0.4075879454612732,1.697490930557251
1751389807858438000,1.18843798828125,1.769952654838562,0.3512764871120453,1.023255705833435
1751389807868484000,1.198484130859375,1.7342325448989868,0.3259856402873993,0.5087440609931946
1751389807878529500,1.208529541015625,1.7027121782302856,0.42113691568374634,0.15624700486660004
1751389807888575500,1.218575439453125,1.679371953010559,0.6538592576980591,-0.019000159576535225
1751389807898620700,1.22862060546875,1.6837568283081055,0.8230088949203491,0.07037072628736496
1751389807908666600,1.23866650390625,1.7426648139953613,0.49697357416152954,0.5542294383049011
1751389807918712600,1.248712646484375,1.8462570905685425,-0.28383225202560425,1.188071370124817
1751389807928757500,1.258757568359375,1.9124741554260254,-1.0061777830123901,1.5510284900665283
1751389807938803500,1.268803466796875,1.9007024765014648,-1.3155713081359863,1.5545899868011475
1751389807948848400,1.278848388671875,1.828012228012085,-1.2086999416351318,1.258971095085144
1751389807958894600,1.28889453125,1.7175219058990479,-0.8370768427848816,0.7925868034362793
1751389807968939500,1.298939453125,1.5972729921340942,-0.4484069347381592,0.35152602195739746
1751389807978985500,1.3089853515625,1.500213623046875,-0.23664090037345886,0.046371426433324814
1751389807989030700,1.31903076171875,1.413538932800293,-0.2285183221101761,-0.042335622012615204
1751389807999076600,1.32907666015625,1.3659522533416748,-0.395427942276001,0.06974910199642181
1751389808009122600,1.33912255859375,1.3222393989562988,-0.6038568019866943,0.2770178020000458
1751389808019167500,1.34916748046875,1.276151180267334,-0.7445290088653564,0.4627149701118469
1751389808029213400,1.35921337890625,1.2048025131225586,-0.7778401970863342,0.5389209389686584
1751389808039258400,1.36925830078125,1.098987340927124,-0.719264805316925,0.4938597083091736
1751389808049304600,1.3793046875,0.9731093049049377,-0.7131544947624207,0.31650564074516296
1751389808059349500,1.389349609375,0.8273422718048096,-0.8050863146781921,0.0711347684264183
1751389808069395500,1.3993955078125,0.6621043086051941,-0.9689040780067444,-0.15390720963478088
1751389808079440600,1.409440673828125,0.4815089702606201,-1.14265775680542,-0.3019115924835205
1751389808089486600,1.419486572265625,0.2868087887763977,-1.22386634349823,-0.34840884804725647
1751389808099531500,1.429531494140625,0.10092571377754211,-1.175057053565979,-0.31091633439064026
1751389808109577500,1.439577392578125,-0.06544193625450134,-1.0504237413406372,-0.23146669566631317
1751389808119623400,1.44962353515625,-0.22185204923152924,-0.8910415768623352,-0.1499108523130417
1751389808129668400,1.45966845703125,-0.371840238571167,-0.7215127348899841,-0.08278011530637741
1751389808139714600,1.469714599609375,-0.5260868072509766,-0.5849916338920593,-0.02585291489958763
1751389808149759500,1.479759521484375,-0.6926975846290588,-0.5114374160766602,0.010340114124119282
1751389808159805400,1.489805419921875,-0.8684433102607727,-0.5000856518745422,0.024006392806768417
1751389808169850600,1.4998505859375,-1.0350042581558228,-0.5189601182937622,0.01112585049122572
1751389808179896600,1.509896484375,-1.2032657861709595,-0.4845201373100281,-0.0003888597711920738
1751389808189941500,1.51994140625,-1.3546290397644043,-0.32074081897735596,0.0321846529841423
1751389808199987500,1.529987548828125,-1.48622727394104,0.05623895302414894,0.11055083572864532
1751389808210033400,1.540033447265625,-1.5591857433319092,0.6647950410842896,0.20445527136325836
1751389808220078600,1.55007861328125,-1.5570597648620605,1.3081790208816528,0.3079577088356018
1751389808230124500,1.56012451171875,-1.458033561706543,1.7866792678833008,0.447994589805603
1751389808240169500,1.57016943359375,-1.2625442743301392,2.042710065841675,0.6183450222015381
1751389808250215400,1.58021533203125,-0.9684111475944519,2.040963888168335,0.72853684425354
1751389808260260600,1.590260498046875,-0.6399754881858826,1.856726050376892,0.6405079364776611
1751389808270306600,1.600306640625,-0.3392065763473511,1.4067277908325195,0.3073357045650482
1751389808280351500,1.6103515625,-0.07039642333984375,0.6995999813079834,-0.16431786119937897
1751389808290397400,1.6203974609375,0.22627471387386322,-0.1365121603012085,-0.6222431659698486
1751389808300443400,1.630443359375,0.46850278973579407,-0.840620756149292,-0.958513081073761
1751389808310488600,1.640488525390625,0.5851612091064453,-1.19594144821167,-1.0952810049057007
1751389808320534500,1.650534423828125,0.6150501370429993,-1.2846859693527222,-1.0503995418548584
1751389808330579500,1.660579345703125,0.6107274293899536,-1.283372163772583,-0.9231029748916626
1751389808340625400,1.67062548828125,0.5778166651725769,-1.1775083541870117,-0.8639392852783203
1751389808350670600,1.680670654296875,0.4668957591056824,-1.0609896183013916,-0.825833797454834
1751389808360716500,1.690716552734375,0.22301970422267914,-1.1218769550323486,-0.698138415813446
1751389808370761500,1.700761474609375,-0.05521351099014282,-1.3467087745666504,-0.514936089515686
1751389808380807400,1.710807373046875,-0.3100340962409973,-1.5023452043533325,-0.3388691544532776
1751389808390852400,1.720852294921875,-0.5351220965385437,-1.3226484060287476,-0.19250357151031494
1751389808400898600,1.730898681640625,-0.7698163390159607,-0.04888906702399254,-0.05702032148838043
1751389808410944500,1.740944580078125,-0.9669716954231262,1.4750776290893555,-0.0626542866230011
1751389808420989400,1.750989501953125,-1.1419938802719116,2.21126127243042,-0.15934033691883087
1751389808431035400,1.761035400390625,-1.2853424549102783,2.1183409690856934,-0.31007373332977295
1751389808441080600,1.77108056640625,-1.3729714155197144,1.6762043237686157,-0.46384385228157043
1751389808451126500,1.78112646484375,-1.352128505706787,1.2701627016067505,-0.539141058921814
1751389808461171700,1.791171630859375,-1.2460150718688965,0.9029987454414368,-0.537642240524292
1751389808471217400,1.801217529296875,-1.0819480419158936,0.4510951042175293,-0.5059673190116882
1751389808481263400,1.811263427734375,-0.9210188388824463,-0.035810645669698715,-0.44952908158302307
1751389808491308500,1.82130859375,-0.7954130172729492,-0.4676530063152313,-0.360612154006958
1751389808501354500,1.8313544921875,-0.7305759787559509,-0.8295550346374512,-0.24950774013996124
1751389808511399400,1.8413994140625,-0.710307776927948,-1.1281225681304932,-0.1557580977678299
1751389808521445600,1.851445556640625,-0.7446447014808655,-1.3450812101364136,-0.10977143049240112
1751389808531490600,1.861490478515625,-0.8142330050468445,-1.3665920495986938,-0.13949565589427948
1751389808541536500,1.87153662109375,-0.9839288592338562,-0.5719015598297119,-0.4542951285839081
1751389808551581700,1.881581787109375,-1.2061132192611694,0.5548110604286194,-0.8779998421669006
1751389808561627600,1.891627685546875,-1.3850592374801636,1.2947367429733276,-1.1546988487243652
1751389808571673300,1.90167333984375,-1.495180368423462,1.4861891269683838,-1.2402838468551636
1751389808581718500,1.911718505859375,-1.541416883468628,1.2754360437393188,-1.1931188106536865
1751389808591764500,1.921764404296875,-1.5531141757965088,0.8503167033195496,-1.1082240343093872
1751389808601809400,1.931809326171875,-1.5423024892807007,0.36179518699645996,-1.0223256349563599
1751389808611855600,1.941855712890625,-1.5279375314712524,-0.011574164032936096,-0.9578953981399536
1751389808621900500,1.951900634765625,-1.5115405321121216,-0.13685618340969086,-0.9520114064216614
1751389808631946500,1.961946533203125,-1.4643970727920532,-0.033778853714466095,-0.9972348809242249
1751389808641992400,1.971992431640625,-1.3900845050811768,0.11589746177196503,-1.0512323379516602
1751389808652037600,1.98203759765625,-1.276859998703003,0.1633777916431427,-1.0871185064315796
1751389808662083600,1.99208349609375,-1.1389867067337036,0.04288706183433533,-1.0957343578338623
1751389808672128500,2.00212841796875,-0.9983466267585754,-0.20489908754825592,-1.0810375213623047
1751389808682174500,2.012174560546875,-0.8521590232849121,-0.48833584785461426,-1.0608305931091309
1751389808692219400,2.022219482421875,-0.7058684229850769,-0.7124663591384888,-1.0338380336761475
1751389808702265600,2.032265625,-0.578313410282135,-0.8575325012207031,-1.0107207298278809
1751389808712310500,2.042310546875,-0.5020343065261841,-0.881517767906189,-0.9875178933143616
1751389808722356500,2.0523564453125,-0.47491374611854553,-0.7331032156944275,-0.965518593788147
1751389808732402700,2.062402587890625,-0.48203858733177185,-0.2660195827484131,-0.8917489647865295
1751389808742447600,2.072447509765625,-0.511873722076416,0.51999431848526,-0.758198082447052
1751389808752493600,2.08249365234375,-0.5899838805198669,1.1892057657241821,-0.6800212860107422
1751389808762538500,2.09253857421875,-0.6613624691963196,1.5182050466537476,-0.6551800966262817
1751389808772584400,2.10258447265625,-0.6867290735244751,1.597277045249939,-0.627328097820282
1751389808782629400,2.11262939453125,-0.6746444702148438,1.452633023262024,-0.5907559990882874
1751389808792675600,2.122675537109375,-0.6304299235343933,1.2159456014633179,-0.5329053997993469
1751389808802721500,2.132721435546875,-0.5468127727508545,0.9810510873794556,-0.43712317943573
1751389808812766500,2.142766357421875,-0.44488075375556946,0.8066202402114868,-0.3128160536289215
1751389808822812700,2.152812744140625,-0.34258076548576355,0.7402604222297668,-0.1899964064359665
1751389808832857600,2.162857666015625,-0.25437796115875244,0.7939438819885254,-0.10968193411827087
1751389808842903600,2.172903564453125,-0.22029055655002594,0.8509925603866577,-0.07809657603502274
1751389808852948500,2.182948486328125,-0.2576741874217987,0.6957417726516724,-0.04352811723947525
1751389808862994400,2.192994384765625,-0.3577837347984314,0.32027125358581543,0.03409983217716217
1751389808873040400,2.203040283203125,-0.5048599243164062,-0.1548314243555069,0.1409527063369751
1751389808883084500,2.21308447265625,-0.66656094789505,-0.6504219770431519,0.25322386622428894
1751389808893130500,2.223130615234375,-0.8008588552474976,-1.1036831140518188,0.3452704846858978
1751389808903175700,2.23317578125,-0.8850190043449402,-1.3741893768310547,0.3717076778411865
1751389808913221600,2.2432216796875,-0.8911016583442688,-1.291795015335083,0.3268013000488281
1751389808923266600,2.2532666015625,-0.7807623744010925,-0.9082880020141602,0.2462121993303299
1751389808933312800,2.263312744140625,-0.5365159511566162,-0.4156622588634491,0.16487067937850952
1751389808943358700,2.273358642578125,-0.18848155438899994,0.15647955238819122,0.11252117902040482
1751389808953403600,2.283403564453125,0.24320361018180847,0.8651218414306641,0.1351308673620224
1751389808963449600,2.29344970703125,0.7254549860954285,1.645413875579834,0.2733510732650757
1751389808973494500,2.30349462890625,1.2626802921295166,2.332658290863037,0.534673273563385
1751389808983540500,2.31354052734375,1.8574222326278687,2.6950364112854004,0.8805937170982361
1751389808993585700,2.323585693359375,2.442840099334717,2.6897239685058594,1.3205175399780273
1751389809003631600,2.333631591796875,3.0016236305236816,2.2754783630371094,1.892203688621521
1751389809013677600,2.343677490234375,3.4443206787109375,1.5224021673202515,2.482724189758301
1751389809023722800,2.35372265625,3.7286527156829834,0.7301196455955505,2.954383134841919
1751389809033768700,2.363768798828125,3.877103090286255,0.24662448465824127,3.2462406158447266
1751389809043813600,2.373813720703125,3.9763545989990234,0.2547615170478821,3.3188092708587646
1751389809053859600,2.383859619140625,4.066472053527832,0.7653095126152039,3.0389177799224854
1751389809063904500,2.393904541015625,4.065008163452148,1.2699942588806152,2.1506402492523193
1751389809073950500,2.403950439453125,3.852033853530884,0.938997209072113,1.1599794626235962
1751389809083996400,2.413996337890625,3.425403356552124,-0.16116978228092194,0.4306594729423523
1751389809094041600,2.42404150390625,2.9135396480560303,-1.512266755104065,-0.015192502178251743
1751389809104087600,2.434087646484375,2.4708192348480225,-2.6021039485931396,-0.2022974193096161
1751389809114132700,2.4441328125,2.1800076961517334,-3.2582836151123047,-0.24449986219406128
1751389809124178700,2.4541787109375,1.968292236328125,-3.4418270587921143,-0.22843754291534424
1751389809134223600,2.4642236328125,1.7757996320724487,-3.172297477722168,-0.18769671022891998
1751389809144269800,2.474269775390625,1.6296358108520508,-2.6186587810516357,-0.16948282718658447
1751389809154315800,2.484315673828125,1.55314040184021,-2.083151340484619,-0.21997304260730743
1751389809164360400,2.4943603515625,1.482356309890747,-1.7112727165222168,-0.27957671880722046
1751389809174406700,2.50440673828125,1.4096332788467407,-1.2558445930480957,-0.2643061578273773
1751389809184451600,2.51445166015625,1.3299953937530518,-0.8646603226661682,-0.20235835015773773
1751389809194497500,2.52449755859375,1.2270965576171875,-0.6367204189300537,-0.12081456929445267
1751389809204542700,2.534542724609375,1.1078168153762817,-0.48166266083717346,-0.06417792290449142
1751389809214588700,2.544588623046875,0.9843248724937439,-0.4353766143321991,-0.066522017121315
1751389809224634600,2.554634521484375,0.8482053875923157,-0.5186225175857544,-0.13160434365272522
1751389809234679800,2.5646796875,0.6951037645339966,-0.6959702968597412,-0.2535097599029541
1751389809244725800,2.574725830078125,0.5298082828521729,-0.9253526329994202,-0.3973255455493927
1751389809254770400,2.5847705078125,0.3326307237148285,-1.1946390867233276,-0.5265147686004639
1751389809264816600,2.594816650390625,0.11463046818971634,-1.4538384675979614,-0.624902606010437
1751389809274861600,2.604861572265625,-0.11947842687368393,-1.6426608562469482,-0.6774166822433472
1751389809284907500,2.614907470703125,-0.36114779114723206,-1.7531201839447021,-0.6623842120170593
1751389809294953500,2.624953369140625,-0.6074385046958923,-1.8392390012741089,-0.6019025444984436
1751389809304998700,2.63499853515625,-0.8478913307189941,-1.9069045782089233,-0.4858874976634979
1751389809315044600,2.645044677734375,-1.0621592998504639,-1.9619500637054443,-0.37519535422325134
1751389809325089800,2.65508984375,-1.2462964057922363,-2.0102546215057373,-0.29581958055496216
1751389809335135700,2.6651357421875,-1.3958550691604614,-2.009403705596924,-0.2698323726654053
1751389809345180700,2.6751806640625,-1.545336365699768,-1.7523999214172363,-0.2750476598739624
1751389809355226600,2.6852265625,-1.6841981410980225,-0.9385000467300415,-0.1138250082731247
1751389809365272600,2.6952724609375,-1.5749017000198364,0.3221871852874756,0.5382529497146606
1751389809375317500,2.7053173828125,-1.0997480154037476,2.0432260036468506,0.6793447732925415
1751389809385363500,2.715363525390625,-0.499834805727005,2.7699828147888184,0.36470910906791687
1751389809395408600,2.72540869140625,-0.14138932526111603,2.425415277481079,-0.02594141662120819
1751389809405454600,2.73545458984375,-0.2328428030014038,1.937608003616333,-0.25423210859298706
1751389809415499800,2.745499755859375,-0.5886853337287903,1.6630139350891113,-0.25789421796798706
1751389809425545700,2.755545654296875,-0.9492930769920349,1.7203662395477295,-0.2977183163166046
1751389809435591700,2.765591796875,-1.0451865196228027,1.8692905902862549,-0.4165557026863098
1751389809445636900,2.775636962890625,-0.8336692452430725,1.8211175203323364,-0.5823668241500854
1751389809455682600,2.7856826171875,-0.4718371629714966,1.7735182046890259,-0.6977184414863586
1751389809465727500,2.7957275390625,-0.21725520491600037,1.781646728515625,-0.5710601210594177
1751389809475773700,2.805773681640625,-0.21623529493808746,1.853654384613037,-0.1328722983598709
1751389809485818600,2.815818603515625,-0.22718167304992676,1.9518667459487915,0.3851841688156128
1751389809495864600,2.825864501953125,0.04811352491378784,1.7998123168945312,0.469878613948822
1751389809505910500,2.83591064453125,0.46504950523376465,1.1294664144515991,0.33515381813049316
1751389809515955700,2.845955810546875,0.6973757147789001,0.1325172334909439,0.23071572184562683
1751389809526001700,2.856001708984375,0.717411458492279,-0.5845146775245667,0.1334426999092102
1751389809536046800,2.866046875,0.5236963033676147,-0.5574833750724792,-0.08175863325595856
1751389809546092800,2.8760927734375,0.20937378704547882,-0.3787860572338104,-0.20278732478618622
1751389809556138500,2.886138427734375,-0.16269853711128235,-0.43765345215797424,-0.3469558656215668
1751389809566183700,2.89618359375,-0.5622736215591431,-0.7391120791435242,-0.5819441676139832
1751389809576229600,2.906229736328125,-0.9712292551994324,-1.0608834028244019,-0.8234865665435791
1751389809586274600,2.916274658203125,-1.3220984935760498,-1.2200067043304443,-0.955822765827179
1751389809596320500,2.926320556640625,-1.550828218460083,-1.289373755455017,-0.9687903523445129
1751389809606365700,2.93636572265625,-1.656026005744934,-1.3338546752929688,-0.8829801082611084
1751389809616411600,2.94641162109375,-1.639284610748291,-1.4112616777420044,-0.7581895589828491
1751389809626457600,2.95645751953125,-1.5607059001922607,-1.5327426195144653,-0.6068745851516724
1751389809636502800,2.966502685546875,-1.4378585815429688,-1.7126243114471436,-0.44932976365089417
1751389809646548700,2.976548828125,-1.3039803504943848,-1.8767856359481812,-0.2917518615722656
1751389809656593700,2.98659375,-1.1862850189208984,-1.978315830230713,-0.16123493015766144
1751389809666639600,2.9966396484375,-1.1127122640609741,-1.9500269889831543,-0.06303165853023529
1751389809676684500,3.0066845703125,-1.0873925685882568,-1.830627679824829,-0.04054608196020126
1751389809686730500,3.01673046875,-1.0662363767623901,-1.63313627243042,-0.11766190081834793
1751389809696776700,3.026776611328125,-1.0632363557815552,-1.148531198501587,-0.371921569108963
1751389809706821600,3.036821533203125,-1.1002005338668823,-0.2713559865951538,-0.8206921815872192
1751389809716867600,3.04686767578125,-1.1340358257293701,0.5721948742866516,-1.245045781135559
1751389809726912800,3.056912841796875,-1.1487289667129517,1.0825915336608887,-1.4857604503631592
1751389809736958700,3.066958740234375,-1.1654393672943115,1.264197826385498,-1.5559022426605225
1751389809747004700,3.077004638671875,-1.1837936639785767,1.277900218963623,-1.5484826564788818
1751389809757049600,3.087049560546875,-1.2144502401351929,1.220373272895813,-1.5041790008544922
1751389809767095600,3.097095458984375,-1.250331997871399,1.1240360736846924,-1.449946641921997
1751389809777140700,3.107140625,-1.2730857133865356,0.9903448224067688,-1.390636920928955
1751389809787186700,3.117186767578125,-1.2602574825286865,0.8383750319480896,-1.326403021812439
1751389809797231600,3.127231689453125,-1.1968095302581787,0.6825416684150696,-1.2631717920303345
1751389809807277600,3.137277587890625,-1.1001267433166504,0.5203133821487427,-1.2119252681732178
1751389809817323800,3.14732373046875,-0.9938458204269409,0.383727490901947,-1.1675032377243042
1751389809827368700,3.15736865234375,-0.9071572422981262,0.31769734621047974,-1.1153903007507324
1751389809837414700,3.16741455078125,-0.8630678653717041,0.295448899269104,-1.0675121545791626
1751389809847459600,3.17745947265625,-0.8372107148170471,0.31261616945266724,-1.044791340827942
1751389809857505500,3.187505615234375,-0.7973816990852356,0.47767120599746704,-1.0047118663787842
1751389809867551500,3.197551513671875,-0.7293400764465332,0.8763965368270874,-0.9131462574005127
1751389809877597400,3.207597412109375,-0.6431400775909424,1.3714665174484253,-0.8828810453414917
1751389809887643400,3.217643310546875,-0.5499386787414551,2.114474296569824,-0.9929500222206116
1751389809897688300,3.227688232421875,-0.5104804635047913,2.8996694087982178,-1.1403316259384155
1751389809907734300,3.237734375,-0.558607280254364,3.2966294288635254,-1.191093921661377
1751389809917780500,3.247780517578125,-0.6542624235153198,3.202829360961914,-1.1173226833343506
1751389809927825200,3.2578251953125,-0.7197532653808594,2.7769274711608887,-0.9528570771217346
1751389809937871000,3.26787109375,-0.7249811291694641,2.1969919204711914,-0.724215567111969
1751389809947916300,3.277916259765625,-0.6550100445747375,1.6478657722473145,-0.4426962733268738
1751389809957962200,3.287962158203125,-0.5509315133094788,1.1978607177734375,-0.09365418553352356
1751389809968007400,3.29800732421875,-0.44855770468711853,0.7727230787277222,0.35677796602249146
1751389809978053400,3.308053466796875,-0.3777354657649994,0.3895024359226227,0.8229462504386902
1751389809988099300,3.318099365234375,-0.3399084508419037,0.17907701432704926,1.1972382068634033
1751389809998144500,3.32814453125,-0.3214161992073059,0.1834273338317871,1.4490084648132324
1751389810008190500,3.3381904296875,-0.2734718322753906,0.2319812774658203,1.6012259721755981
1751389810018235100,3.348235107421875,-0.15107327699661255,0.01750984974205494,1.6773741245269775
1751389810028281000,3.358281005859375,0.004538689740002155,-0.5427934527397156,1.6840753555297852
1751389810038327300,3.368327392578125,0.18200749158859253,-1.2523231506347656,1.6429965496063232
1751389810048372200,3.378372314453125,0.3674522042274475,-1.8094031810760498,1.5761266946792603
1751389810058418200,3.388418212890625,0.579006016254425,-1.7878626585006714,1.509246587753296
1751389810068463400,3.39846337890625,0.8112706542015076,-1.0195313692092896,1.5124999284744263
1751389810078509300,3.40850927734375,1.119136929512024,-0.06434211134910583,1.5699896812438965
1751389810088555300,3.41855517578125,1.563095211982727,0.3954734206199646,1.5724440813064575
1751389810098600400,3.428600341796875,2.1170895099639893,0.3040538430213928,1.4887787103652954
1751389810108646400,3.438646484375,2.692786931991577,-0.06490342319011688,1.390041470527649
1751389810118691300,3.44869140625,3.2134456634521484,-0.3947402238845825,1.29720139503479
1751389810128737300,3.4587373046875,3.626155376434326,-0.5026072859764099,1.2277030944824219
1751389810138782200,3.4687822265625,3.9414076805114746,-0.27098286151885986,1.1812454462051392
1751389810148828200,3.478828125,4.163054466247559,0.34037238359451294,1.110716700553894
1751389810158874400,3.488874267578125,4.280492305755615,1.1422221660614014,1.0064671039581299
1751389810168919300,3.498919189453125,4.301764011383057,1.7947746515274048,0.8785558342933655
1751389810178965200,3.50896533203125,4.229517459869385,2.179187297821045,0.7816342115402222
1751389810189010400,3.519010498046875,4.011619567871094,2.436378002166748,0.7775249481201172
1751389810199056400,3.529056396484375,3.653745412826538,2.276644706726074,0.903567910194397
1751389810209102300,3.539102294921875,3.1934008598327637,1.4952921867370605,1.02959406375885
1751389810219147300,3.549147216796875,2.7364180088043213,0.43507635593414307,0.9555978775024414
1751389810229193200,3.559193115234375,2.341827630996704,-0.4757745563983917,0.5764156579971313
1751389810239238100,3.569238037109375,1.990304708480835,-1.161487340927124,0.015886453911662102
1751389810249284400,3.579284423828125,1.6609086990356445,-1.6871018409729004,-0.5244761109352112
1751389810259330300,3.589330322265625,1.348499059677124,-2.091614246368408,-0.9590073227882385
1751389810269375200,3.599375244140625,1.0767731666564941,-2.5310027599334717,-1.2647265195846558
1751389810279421400,3.60942138671875,0.8419470191001892,-2.9314682483673096,-1.3932098150253296
1751389810289466400,3.61946630859375,0.6328824758529663,-3.112854480743408,-1.3528081178665161
1751389810299512300,3.62951220703125,0.43359097838401794,-3.0748651027679443,-1.202079176902771
1751389810309557200,3.63955712890625,0.24012430012226105,-2.89787220954895,-1.0172768831253052
1751389810319603200,3.649603271484375,0.07565871626138687,-2.737813949584961,-0.8266763687133789
1751389810329649200,3.659649169921875,-0.04338298738002777,-2.588160514831543,-0.6538193821907043
1751389810339694300,3.6696943359375,-0.12190259248018265,-2.426088809967041,-0.5318445563316345
1751389810349740300,3.679740234375,-0.16063028573989868,-2.2645986080169678,-0.45027217268943787
1751389810359785200,3.68978515625,-0.16418804228305817,-2.0902209281921387,-0.3909584879875183
1751389810369831400,3.69983154296875,-0.1567745953798294,-1.9308748245239258,-0.3286895155906677
1751389810379877400,3.70987744140625,-0.16248144209384918,-1.8157787322998047,-0.27409520745277405
1751389810389922300,3.71992236328125,-0.2055138647556305,-1.7252781391143799,-0.23392382264137268
1751389810399968500,3.729968505859375,-0.26067134737968445,-1.6153775453567505,-0.1980486959218979
1751389810410013200,3.74001318359375,-0.3127678632736206,-1.5054163932800293,-0.193057119846344
1751389810420059100,3.75005908203125,-0.38079458475112915,-1.4638930559158325,-0.21427929401397705
1751389810430105000,3.76010498046875,-0.47803056240081787,-1.4572921991348267,-0.29234880208969116
1751389810440150300,3.770150390625,-0.6083813905715942,-1.3545705080032349,-0.4937829375267029
1751389810450196200,3.7801962890625,-0.7306926250457764,-0.9192885756492615,-0.9013043642044067
1751389810460241400,3.790241455078125,-0.9110848307609558,-0.027659455314278603,-1.2776614427566528
1751389810470287400,3.800287353515625,-0.9863947629928589,0.8222420811653137,-0.6675711870193481
1751389810480333300,3.810333251953125,-0.6303319334983826,2.337294340133667,0.3373774588108063
1751389810490378500,3.82037841796875,-0.2413559854030609,3.300863265991211,0.9681551456451416
1751389810500424400,3.830424560546875,-0.266053706407547,3.261112689971924,0.961489200592041
1751389810510469000,3.84046923828125,-0.4692307710647583,2.7533791065216064,0.5230676531791687
1751389810520515300,3.850515380859375,-0.6840147376060486,2.110442638397217,-0.20558863878250122
1751389810530561300,3.860561279296875,-0.8421702980995178,1.828565239906311,-0.859154462814331
1751389810540606200,3.870606201171875,-0.8249862194061279,1.9784835577011108,-1.2283787727355957
1751389810550652200,3.880652099609375,-0.6770404577255249,2.1087615489959717,-1.2598423957824707
1751389810560697300,3.890697265625,-0.3624688386917114,1.8073575496673584,-0.9674623608589172
1751389810570743300,3.900743408203125,0.022746222093701363,1.1063517332077026,-0.46591779589653015
1751389810580788500,3.91078857421875,0.372096985578537,0.18837057054042816,-0.14214633405208588
1751389810590834400,3.92083447265625,0.5670449137687683,-0.8918480277061462,-0.10194031894207001
1751389810600880400,3.93088037109375,0.5177439451217651,-2.070491075515747,-0.02484525367617607
1751389810610925300,3.94092529296875,0.4359748065471649,-3.18524432182312,0.11878062784671783
1751389810620971300,3.95097119140625,0.32740873098373413,-3.8448972702026367,0.2791973948478699
1751389810631016200,3.96101611328125,0.18095403909683228,-4.012033939361572,0.392271488904953
1751389810641062100,3.971062255859375,0.03405964374542236,-3.5057623386383057,0.2526068687438965
1751389810651108400,3.9811083984375,-0.0005896803922951221,-1.4605451822280884,-0.5855064392089844
1751389810661153300,3.9911533203125,-0.06787629425525665,0.17044061422348022,-1.2530280351638794
1751389810671199200,4.00119921875,-0.31767040491104126,0.9582632780075073,-1.55865478515625
1751389810681244400,4.011244384765625,-0.6737642884254456,1.3970633745193481,-1.6560907363891602
1751389810691290400,4.021290283203125,-0.9785900115966797,1.7387937307357788,-1.5650339126586914
1751389810701336300,4.03133642578125,-1.1865215301513672,1.9267048835754395,-1.3303812742233276
1751389810711381200,4.04138134765625,-1.29217529296875,1.9415549039840698,-1.0238412618637085
1751389810721427200,4.05142724609375,-1.313004970550537,1.8370757102966309,-0.6847206354141235
1751389810731472100,4.06147216796875,-1.251150131225586,1.6268503665924072,-0.3583528995513916
1751389810741518300,4.071518310546875,-1.1256422996520996,1.3484773635864258,-0.027927879244089127
1751389810751564300,4.081564208984375,-0.9735406637191772,1.05109441280365,0.29610079526901245
1751389810761609200,4.091609130859375,-0.8338581323623657,0.8073800802230835,0.5705417990684509
1751389810771655400,4.101655517578125,-0.7434201240539551,0.614643394947052,0.7633043527603149
1751389810781700400,4.111700439453125,-0.7046859264373779,0.4485892057418823,0.8488360047340393
1751389810791746300,4.121746337890625,-0.71843022108078,0.3045412302017212,0.8460758924484253
1751389810801792300,4.131792236328125,-0.7710964679718018,0.1581350415945053,0.7515968680381775
1751389810811837200,4.141837158203125,-0.9651069045066833,0.43851104378700256,0.3358888328075409
1751389810821883100,4.151883056640625,-1.292808175086975,1.0926356315612793,-0.3168546259403229
1751389810831928300,4.16192822265625,-1.5802487134933472,1.5228767395019531,-0.7962917685508728
1751389810841974300,4.171974365234375,-1.7678518295288086,1.5405800342559814,-0.984409511089325
1751389810852020200,4.182020263671875,-1.887003779411316,1.230089545249939,-0.9998819231987
1751389810862065400,4.1920654296875,-1.9522521495819092,0.7718684673309326,-0.9577869772911072
1751389810872111400,4.202111328125,-1.961837887763977,0.27206265926361084,-0.9117158651351929
1751389810882156300,4.21215625,-1.9113420248031616,-0.21977108716964722,-0.8687161803245544
1751389810892202500,4.222202392578125,-1.8117996454238892,-0.6736312508583069,-0.8523491621017456
1751389810902248400,4.23224853515625,-1.669379711151123,-1.0599725246429443,-0.881926417350769
1751389810912293400,4.24229345703125,-1.5068999528884888,-1.3632534742355347,-0.9421365261077881
1751389810922339300,4.25233935546875,-1.3616355657577515,-1.5748400688171387,-1.0357826948165894
1751389810932384500,4.262384521484375,-1.2622112035751343,-1.660367488861084,-1.1772340536117554
1751389810942430500,4.272430419921875,-1.1654380559921265,-1.4841831922531128,-1.3589287996292114
1751389810952476400,4.282476318359375,-1.0086554288864136,-0.5666078329086304,-1.7236372232437134
1751389810962521300,4.292521240234375,-0.8453555107116699,0.8146713972091675,-2.169677495956421
1751389810972567300,4.3025673828125,-0.8319723010063171,1.743717074394226,-2.3560807704925537
1751389810982613200,4.31261328125,-0.9694987535476685,1.9725017547607422,-2.29974365234375
1751389810992658400,4.322658447265625,-1.1488738059997559,1.7402945756912231,-2.1233069896698
1751389811002704400,4.332704345703125,-1.2322983741760254,1.3329952955245972,-1.872040867805481
1751389811012749300,4.342749267578125,-1.2145169973373413,0.8232908844947815,-1.558339238166809
1751389811022795500,4.35279541015625,-1.117793321609497,0.23114079236984253,-1.1980211734771729
1751389811032841500,4.362841552734375,-0.9801555871963501,-0.3614325225353241,-0.7965613007545471
1751389811042886400,4.372886474609375,-0.8300110697746277,-0.6588917970657349,-0.3362675905227661
1751389811052932600,4.3829326171875,-0.6880203485488892,-0.37895119190216064,0.1765725314617157
1751389811062977300,4.392977294921875,-0.605731189250946,0.20402522385120392,0.673479437828064
1751389811073023200,4.403023193359375,-0.6007604002952576,0.6369332075119019,1.0978291034698486
1751389811083069400,4.4130693359375,-0.6413304209709167,0.771111011505127,1.4374957084655762
1751389811093114400,4.4231142578125,-0.6680424213409424,0.7644342184066772,1.685722827911377
1751389811103160300,4.433160400390625,-0.6205779314041138,0.7887887358665466,1.8152889013290405
1751389811113205500,4.44320556640625,-0.4886728823184967,0.8774756789207458,1.8462201356887817
1751389811123251500,4.45325146484375,-0.28480446338653564,0.903752326965332,1.793168306350708
1751389811133297400,4.46329736328125,-0.041492730379104614,0.7972400188446045,1.6481770277023315
1751389811143342600,4.473342529296875,0.21611888706684113,0.5758007764816284,1.4539202451705933
1751389811153388500,4.483388427734375,0.4952423870563507,0.4076046049594879,1.2627990245819092
1751389811163433200,4.49343310546875,0.7708237171173096,0.6003150939941406,1.1248865127563477
1751389811173479400,4.5034794921875,1.0540283918380737,1.4400906562805176,1.0858699083328247
1751389811183525400,4.513525390625,1.3820801973342896,2.5746755599975586,1.1397119760513306
1751389811193570300,4.5235703125,1.8186637163162231,3.215237855911255,1.240931749343872
1751389811203616300,4.5336162109375,2.40627384185791,3.246868371963501,1.2889916896820068
1751389811213662500,4.543662353515625,3.067035675048828,3.0272252559661865,1.2757164239883423
1751389811223707400,4.553707275390625,3.645371198654175,2.3598105907440186,1.3621443510055542
1751389811233753300,4.56375341796875,4.052753925323486,1.0147393941879272,1.5259439945220947
1751389811243798500,4.573798583984375,4.333863258361816,-0.33028319478034973,1.5414988994598389
1751389811253844500,4.583844482421875,4.552460193634033,-1.136492133140564,1.3787758350372314
1751389811263890200,4.59389013671875,4.6877923011779785,-1.2914323806762695,1.1700153350830078
1751389811273935400,4.603935302734375,4.716349124908447,-0.9739172458648682,0.9810981750488281
1751389811283981300,4.613981201171875,4.600910663604736,-0.5007150173187256,0.8409543037414551
1751389811294026500,4.624026611328125,4.329977035522461,-0.1350020468235016,0.7654784321784973
1751389811304072400,4.634072509765625,3.9124348163604736,0.0908435583114624,0.7866116166114807
1751389811314118400,4.644118408203125,3.444131374359131,0.21489092707633972,0.8591439127922058
1751389811324163300,4.654163330078125,2.9648540019989014,0.37456998229026794,0.8361876606941223
1751389811334209500,4.66420947265625,2.4924733638763428,0.5875980854034424,0.6997683048248291
1751389811344255500,4.67425537109375,2.0872201919555664,0.6662039160728455,0.36645907163619995
1751389811354300400,4.684300537109375,1.7472375631332397,0.5371322631835938,-0.11956700682640076
1751389811364346400,4.694346435546875,1.4357047080993652,0.11616314202547073,-0.6330825090408325
1751389811374391300,4.704391357421875,1.1751937866210938,-0.5943277478218079,-1.0367066860198975
1751389811384437200,4.714437255859375,0.9773539304733276,-1.5225423574447632,-1.1977696418762207
1751389811394483200,4.724483154296875,0.8316662311553955,-2.4329323768615723,-1.160744309425354
1751389811404528400,4.7345283203125,0.7167543172836304,-3.0566799640655518,-1.017654538154602
1751389811414574300,4.74457421875,0.5841075778007507,-3.3305883407592773,-0.8390903472900391
1751389811424620300,4.754620361328125,0.448234885931015,-3.3657138347625732,-0.6804030537605286
1751389811434665500,4.76466552734375,0.3070482015609741,-3.271151065826416,-0.5722680687904358
1751389811444711400,4.77471142578125,0.16505621373653412,-3.096304178237915,-0.5200850367546082
1751389811454756600,4.784756591796875,0.043028052896261215,-2.8743197917938232,-0.5197228789329529
1751389811464802300,4.79480224609375,-0.06444261968135834,-2.636760711669922,-0.5414329767227173
1751389811474848300,4.80484814453125,-0.1417296826839447,-2.3907344341278076,-0.5463318228721619
1751389811484893400,4.8148935546875,-0.2160404771566391,-2.1382319927215576,-0.5237268805503845
1751389811494939400,4.824939453125,-0.2926950454711914,-1.8814927339553833,-0.4798057973384857
1751389811504984300,4.834984375,-0.36467185616493225,-1.6697434186935425,-0.4288197159767151
1751389811515030300,4.8450302734375,-0.45127785205841064,-1.5411465167999268,-0.4204387366771698
1751389811525076500,4.855076416015625,-0.5470522046089172,-1.458282709121704,-0.48821204900741577
1751389811535121400,4.865121337890625,-0.6670475602149963,-1.3199421167373657,-0.6701639890670776
1751389811545167400,4.87516748046875,-0.8137651085853577,-0.9495716691017151,-0.943996250629425
1751389811555213600,4.885213623046875,-1.0144002437591553,-0.034045349806547165,-1.2694774866104126
1751389811565258500,4.895258544921875,-1.2407398223876953,0.9474170207977295,-0.9236400723457336
1751389811575304200,4.90530419921875,-1.0210306644439697,2.114204168319702,0.1796974092721939
1751389811585349400,4.915349365234375,-0.6851434111595154,3.4798495769500732,0.8204845190048218
1751389811595395300,4.925395263671875,-0.5796889066696167,3.6552233695983887,0.9850378036499023
1751389811605441300,4.935441162109375,-0.6015135645866394,2.886127471923828,0.7398583292961121
1751389811615486500,4.945486572265625,-0.6863168478012085,1.8382389545440674,0.028661970049142838
1751389811625532400,4.955532470703125,-0.8096268177032471,1.013386607170105,-0.6897203922271729
1751389811635578400,4.965578369140625,-0.9528201818466187,0.6182898879051208,-1.180989146232605
1751389811645623600,4.97562353515625,-0.9445672631263733,0.5051751732826233,-1.4191571474075317
1751389811655669500,4.98566943359375,-0.7803328037261963,0.6652423143386841,-1.4412223100662231
1751389811665715500,4.995715576171875,-0.6042361259460449,0.9988486170768738,-1.1884889602661133
1751389811675760400,5.005760498046875,-0.6712836027145386,1.0892014503479004,-0.5358542203903198
1751389811685806300,5.015806396484375,-0.7413270473480225,0.9814910888671875,0.18890956044197083
1751389811695851300,5.025851318359375,-0.5227848887443542,0.9621911644935608,0.4853167235851288
1751389811705897200,5.035897216796875,-0.049330711364746094,1.0527522563934326,0.33787626028060913
1751389811715943400,5.045943359375,0.3931684195995331,1.00424063205719,0.0029584504663944244
1751389811725988400,5.05598828125,0.550277590751648,0.7815382480621338,-0.247394859790802
1751389811736034300,5.066034423828125,0.4407702684402466,0.4067608714103699,-0.2662774622440338
1751389811746080500,5.07608056640625,0.1474107801914215,-0.027667194604873657,-0.06305823475122452
1751389811756125400,5.08612548828125,-0.28445887565612793,-0.4296489953994751,0.0594911128282547
1751389811766171400,5.09617138671875,-0.7914062142372131,-0.7524619102478027,0.04998258501291275
1751389811776217300,5.10621728515625,-1.285308837890625,-0.9543290138244629,-0.02637956291437149
1751389811786262300,5.11626220703125,-1.6573325395584106,-1.112217903137207,-0.09594415873289108
1751389811796308200,5.12630810546875,-1.868098497390747,-1.2934001684188843,-0.1410706341266632
1751389811806353400,5.136353515625,-1.952905297279358,-1.6003305912017822,-0.21224164962768555
1751389811816399400,5.1463994140625,-1.9358727931976318,-1.9522744417190552,-0.31382498145103455
1751389811826445300,5.1564453125,-1.8246656656265259,-2.293560028076172,-0.4413149356842041
1751389811836490500,5.166490478515625,-1.64762282371521,-2.58235764503479,-0.5721275210380554
1751389811846536400,5.176536376953125,-1.4584845304489136,-2.783712863922119,-0.6782239675521851
1751389811856582400,5.18658251953125,-1.2907676696777344,-2.80646014213562,-0.7226350903511047
1751389811866627300,5.19662744140625,-1.1776827573776245,-2.5921497344970703,-0.7012375593185425
1751389811876673500,5.206673583984375,-1.118760585784912,-2.218949794769287,-0.6770294308662415
1751389811886718500,5.216718505859375,-1.092738389968872,-1.698161005973816,-0.7606842517852783
1751389811896764400,5.226764404296875,-1.1517633199691772,-0.7227665781974792,-1.0752637386322021
1751389811906810600,5.236810546875,-1.280463457107544,0.48334208130836487,-1.4664534330368042
1751389811916855300,5.246855224609375,-1.4193904399871826,1.4152804613113403,-1.7136263847351074
1751389811926901200,5.2569013671875,-1.5223437547683716,1.899767518043518,-1.7600698471069336
1751389811936947500,5.266947509765625,-1.5709339380264282,2.107367992401123,-1.6986898183822632
1751389811946992400,5.276992431640625,-1.5523805618286133,2.213357448577881,-1.6101146936416626
1751389811957038300,5.287038330078125,-1.4592807292938232,2.2588987350463867,-1.501884937286377
1751389811967084300,5.297084228515625,-1.3242442607879639,2.2285258769989014,-1.3892070055007935
1751389811977129500,5.30712939453125,-1.1740769147872925,2.0911521911621094,-1.2815014123916626
1751389811987175400,5.317175537109375,-1.0240888595581055,1.8617554903030396,-1.174965262413025
1751389811997221400,5.327221435546875,-0.88826584815979,1.5861798524856567,-1.0719318389892578
1751389812007266600,5.3372666015625,-0.757396399974823,1.340488314628601,-0.9575521945953369
1751389812017312500,5.3473125,-0.6538636088371277,1.139949083328247,-0.8355323076248169
1751389812027357400,5.357357421875,-0.6149433851242065,0.9912382960319519,-0.691082239151001
1751389812037403400,5.3674033203125,-0.6456214189529419,0.9313411712646484,-0.502275824546814
1751389812047449300,5.377449462890625,-0.6929736137390137,0.9156336188316345,-0.3356506824493408
1751389812057494500,5.38749462890625,-0.7399960160255432,0.874213457107544,-0.23654142022132874
1751389812067540500,5.39754052734375,-0.8120208382606506,0.8731175661087036,-0.18666599690914154
1751389812077586400,5.40758642578125,-0.8597944974899292,0.9165129661560059,-0.18864178657531738
1751389812087631400,5.41763134765625,-0.8269862532615662,1.0416191816329956,-0.22202152013778687
1751389812097677600,5.427677490234375,-0.7276767492294312,1.2583839893341064,-0.29076462984085083
1751389812107723500,5.4377236328125,-0.5604970455169678,1.766192078590393,-0.4019944667816162
1751389812117768400,5.4477685546875,-0.40196335315704346,2.398423910140991,-0.5084617733955383
1751389812127814700,5.457814697265625,-0.3445127308368683,2.6836507320404053,-0.5226655602455139
1751389812137859300,5.467859375,-0.3983551859855652,2.4986133575439453,-0.45588037371635437
1751389812147905300,5.4779052734375,-0.5136731863021851,2.005748748779297,-0.33551913499832153
1751389812157951200,5.487951171875,-0.6566140651702881,1.3725993633270264,-0.15320710837841034
1751389812167996400,5.497996337890625,-0.8052236437797546,0.7718587517738342,0.07278545945882797
1751389812178042400,5.50804248046875,-0.9081958532333374,0.5371314883232117,0.3167067766189575
1751389812188088300,5.51808837890625,-0.9145622253417969,1.051829218864441,0.5458366870880127
1751389812198133500,5.528133544921875,-0.817952573299408,1.9566792249679565,0.7543089389801025
1751389812208179500,5.538179443359375,-0.622806966304779,2.1854488849639893,0.937769889831543
1751389812218225400,5.548225341796875,-0.342965692281723,1.5789395570755005,1.068352222442627
1751389812228270600,5.5582705078125,0.0010526434052735567,0.610113799571991,1.1446385383605957
1751389812238316500,5.568316650390625,0.38576143980026245,-0.1796913594007492,1.2147809267044067
1751389812248362500,5.578362548828125,0.8180124163627625,-0.10024912655353546,1.3641482591629028
1751389812258407400,5.588407470703125,1.2660399675369263,1.1221386194229126,1.6186065673828125
1751389812268453400,5.598453369140625,1.7222418785095215,1.8970458507537842,1.7839572429656982
1751389812278499300,5.608499267578125,2.23746919631958,1.280806303024292,1.8325064182281494
1751389812288544500,5.61854443359375,2.7858645915985107,0.19067585468292236,1.696529746055603
1751389812298590500,5.628590576171875,3.266899585723877,-0.6226972341537476,1.381130337715149
1751389812308636400,5.638636474609375,3.6623809337615967,-1.2082747220993042,1.1062465906143188
1751389812318681600,5.648681640625,3.9804296493530273,-1.5737453699111938,1.01051926612854
1751389812328727600,5.6587275390625,4.242996692657471,-1.6682873964309692,1.068164348602295
1751389812338772500,5.6687724609375,4.4715776443481445,-1.4323962926864624,1.159763216972351
1751389812348818400,5.678818359375,4.614731311798096,-0.8441727161407471,1.233896017074585
1751389812358864400,5.688864501953125,4.653487682342529,-0.05572601035237312,1.276534080505371
1751389812368909300,5.698909423828125,4.610968589782715,0.6474759578704834,1.2813202142715454
1751389812378955300,5.708955322265625,4.457530498504639,1.1847461462020874,1.2663582563400269
1751389812389001500,5.71900146484375,4.156421661376953,1.5177645683288574,1.247504711151123
1751389812399046400,5.72904638671875,3.749696731567383,1.5457890033721924,1.1556261777877808
1751389812409092400,5.73909228515625,3.2240171432495117,1.3865464925765991,0.9541904926300049
1751389812419138300,5.74913818359375,2.6591269969940186,1.0660099983215332,0.6354093551635742
1751389812429183500,5.75918359375,2.1574628353118896,0.4884549677371979,0.187196284532547
1751389812439229400,5.7692294921875,1.7182838916778564,-0.32907530665397644,-0.26890572905540466
1751389812449275400,5.779275390625,1.3426790237426758,-1.3546746969223022,-0.6579370498657227
1751389812459320600,5.789320556640625,1.0513033866882324,-2.381166458129883,-0.9782207608222961
1751389812469366300,5.7993662109375,0.8261890411376953,-3.15617299079895,-1.2173312902450562
1751389812479412200,5.809412109375,0.6564293503761292,-3.593970537185669,-1.3511439561843872
1751389812489457400,5.81945751953125,0.5515828728675842,-3.734281539916992,-1.383853793144226
1751389812499503400,5.82950341796875,0.4460313618183136,-3.581599473953247,-1.3643591403961182
1751389812509549300,5.83954931640625,0.3324413299560547,-3.2530298233032227,-1.3018898963928223
1751389812519594500,5.849594482421875,0.21213331818580627,-2.916029930114746,-1.2214407920837402
1751389812529640400,5.859640380859375,0.08941936492919922,-2.6523683071136475,-1.1172677278518677
1751389812539686400,5.869686279296875,-0.026813773438334465,-2.4697937965393066,-1.0029853582382202
1751389812549731600,5.879731689453125,-0.1290101408958435,-2.2883129119873047,-0.8875220417976379
1751389812559777500,5.889777587890625,-0.2214423418045044,-2.1187078952789307,-0.7735278010368347
1751389812569822200,5.899822265625,-0.3087415397167206,-2.0018186569213867,-0.6480709910392761
1751389812579868400,5.909868408203125,-0.3887719213962555,-1.9995121955871582,-0.5389538407325745
1751389812589914400,5.919914306640625,-0.46813884377479553,-2.057952880859375,-0.42252033948898315
1751389812599959300,5.929959228515625,-0.5468664169311523,-2.1106412410736084,-0.30295664072036743
1751389812610005500,5.940005615234375,-0.6096161603927612,-2.165083408355713,-0.21986337006092072
1751389812620051500,5.950051513671875,-0.6565098762512207,-2.219499111175537,-0.22100001573562622
1751389812630096400,5.960096435546875,-0.7022792100906372,-2.143824815750122,-0.3300207853317261
1751389812640142300,5.970142333984375,-0.7446317672729492,-1.680164098739624,-0.6009079217910767
1751389812650188500,5.9801884765625,-0.8487542271614075,-0.6868533492088318,-0.817862331867218
1751389812660233500,5.9902333984375,-0.9276551604270935,0.26386138796806335,-0.12677548825740814
1751389812670279400,6.000279541015625,-0.5247135162353516,2.143613338470459,0.349143385887146
1751389812680325600,6.01032568359375,-0.052663709968328476,3.3354809284210205,0.46809905767440796
1751389812690370300,6.020370361328125,0.1820480227470398,3.2899694442749023,0.3169386386871338
1751389812700416300,6.030416259765625,-0.0868966355919838,2.416412115097046,0.0748772919178009
1751389812710462200,6.040462158203125,-0.42802533507347107,1.396655559539795,-0.11594697833061218
1751389812720507400,6.05050732421875,-0.7447047233581543,1.0040323734283447,-0.4253445267677307
1751389812730553300,6.06055322265625,-1.0670607089996338,1.2421938180923462,-0.6775229573249817
1751389812740599300,6.070599365234375,-1.2055549621582031,1.696316123008728,-0.8553624749183655
1751389812750644500,6.08064453125,-1.0223842859268188,2.3183138370513916,-0.9379040598869324
1751389812760690400,6.0906904296875,-0.8290715217590332,2.892376661300659,-0.7644004225730896
1751389812770736400,6.100736328125,-0.853520393371582,3.207334280014038,-0.10753121227025986
1751389812780781600,6.110781494140625,-0.6839555501937866,3.050875663757324,0.5185908675193787
1751389812790827500,6.12082763671875,-0.10303228348493576,2.506117105484009,0.4582941234111786
1751389812800873500,6.13087353515625,0.4290028512477875,1.418532133102417,0.18020975589752197
1751389812810918400,6.14091845703125,0.6771844029426575,0.02878938615322113,0.022786401212215424
1751389812820964400,6.15096435546875,0.6621618270874023,-1.048717975616455,-0.005318735726177692
1751389812831010300,6.16101025390625,0.4509381651878357,-1.5227867364883423,-0.09045422077178955
1751389812841055500,6.171055419921875,0.10993103682994843,-1.496646523475647,-0.1687287986278534
1751389812851101400,6.181101318359375,-0.2858625650405884,-1.3394370079040527,-0.2949182391166687
1751389812861147400,6.1911474609375,-0.662988007068634,-1.4258592128753662,-0.5102819800376892
1751389812871192600,6.201192626953125,-1.045925259590149,-1.5815129280090332,-0.6668000817298889
1751389812881238300,6.21123828125,-1.3630396127700806,-1.5116273164749146,-0.7055829167366028
1751389812891284200,6.2212841796875,-1.5608618259429932,-1.2804445028305054,-0.6010382175445557
1751389812901329200,6.2313291015625,-1.6378763914108276,-1.0856214761734009,-0.4318161904811859
1751389812911375000,6.241375,-1.611862063407898,-0.9933061003684998,-0.24112211167812347
1751389812921421000,6.251421142578125,-1.5222786664962769,-1.0048303604125977,-0.06598944962024689
1751389812931466000,6.261466064453125,-1.403725028038025,-1.0914536714553833,0.08709792792797089
1751389812941512200,6.27151220703125,-1.2915422916412354,-1.2021069526672363,0.19381344318389893
1751389812951558100,6.28155810546875,-1.2242181301116943,-1.2556877136230469,0.24047903716564178
1751389812961603000,6.29160302734375,-1.2154011726379395,-1.210769772529602,0.23907609283924103
1751389812971649300,6.301649169921875,-1.2554854154586792,-1.0803205966949463,0.15668827295303345
1751389812981695200,6.3116953125,-1.3140661716461182,-0.9057848453521729,0.006660162471234798
1751389812991740200,6.321740234375,-1.355411410331726,-0.7527104616165161,-0.19458720088005066
1751389813001786000,6.3317861328125,-1.3819607496261597,-0.593347430229187,-0.4022149443626404
1751389813011832300,6.341832275390625,-1.4067268371582031,-0.362571656703949,-0.6221643090248108
1751389813021877000,6.351876953125,-1.4499499797821045,0.02589806541800499,-0.8787100911140442
1751389813031923000,6.3619228515625,-1.4890811443328857,0.4817259907722473,-1.138828158378601
1751389813041969200,6.37196923828125,-1.5254950523376465,0.8578554391860962,-1.3256827592849731
1751389813052014000,6.38201416015625,-1.5625927448272705,1.0745172500610352,-1.439942479133606
1751389813062060000,6.39206005859375,-1.5899639129638672,1.2044392824172974,-1.5269460678100586
1751389813072106200,6.402106201171875,-1.575587511062622,1.3008116483688354,-1.6029788255691528
1751389813082151200,6.412151123046875,-1.5205434560775757,1.3402613401412964,-1.6747621297836304
1751389813092197000,6.422197021484375,-1.4195438623428345,1.3493287563323975,-1.7331469058990479
1751389813102243000,6.4322431640625,-1.2886532545089722,1.3847935199737549,-1.7629199028015137
1751389813112288300,6.442288330078125,-1.1647471189498901,1.4467706680297852,-1.76395583152771
1751389813122334200,6.452334228515625,-1.0436360836029053,1.5080950260162354,-1.7245341539382935
1751389813132380200,6.462380126953125,-0.9385637044906616,1.5182442665100098,-1.6479229927062988
1751389813142425000,6.472425048828125,-0.8585194945335388,1.4921914339065552,-1.5460366010665894
1751389813152471000,6.482470947265625,-0.8015979528427124,1.4853878021240234,-1.408503532409668
1751389813162517000,6.49251708984375,-0.7862155437469482,1.4700721502304077,-1.285792589187622
1751389813172562200,6.502562255859375,-0.785873532295227,1.427613615989685,-1.195162057876587
1751389813182608100,6.512608154296875,-0.7882996797561646,1.3992154598236084,-1.1067134141921997
1751389813192654000,6.522654052734375,-0.7551694512367249,1.523985505104065,-1.0142487287521362
1751389813202699300,6.53269921875,-0.6552002429962158,2.144167423248291,-0.9227550625801086
1751389813212745200,6.5427451171875,-0.5306104421615601,2.890533447265625,-0.7949830293655396
1751389813222791200,6.552791259765625,-0.4678860902786255,3.118511915206909,-0.5790504813194275
1751389813232836400,6.56283642578125,-0.4764794707298279,2.7073962688446045,-0.277300626039505
1751389813242882300,6.57288232421875,-0.5267277956008911,1.901237964630127,0.07881300151348114
1751389813252928000,6.582927978515625,-0.6075896620750427,0.9823237061500549,0.47375020384788513
1751389813262973200,6.59297314453125,-0.7231774926185608,0.2087220549583435,0.8752837777137756
1751389813273019100,6.60301904296875,-0.837346076965332,-0.344534307718277,1.2401227951049805
1751389813283065000,6.613065185546875,-0.9228154420852661,-0.7620388865470886,1.5136792659759521
1751389813293110000,6.623110107421875,-0.9364985227584839,-1.0925318002700806,1.6557165384292603
1751389813303156200,6.63315625,-0.8486086130142212,-1.3064014911651611,1.6381746530532837
1751389813313202200,6.6432021484375,-0.6126390099525452,-1.1268038749694824,1.4453625679016113
1751389813323247000,6.6532470703125,-0.2945217490196228,-0.10829707235097885,0.922598123550415
1751389813333293300,6.663293212890625,0.18110619485378265,0.49178993701934814,0.4495939016342163
1751389813343339300,6.67333935546875,0.800347089767456,0.4574282467365265,0.2287968099117279
1751389813353384000,6.683384033203125,1.4970757961273193,0.4030357003211975,0.2759496867656708
1751389813363430100,6.69343017578125,2.2469589710235596,0.7961750626564026,0.6332758665084839
1751389813373476000,6.70347607421875,2.981096029281616,1.37825345993042,1.1027443408966064
1751389813383521000,6.71352099609375,3.680353879928589,1.7655985355377197,1.4855353832244873
1751389813393567000,6.72356689453125,4.308722972869873,1.8632475137710571,1.7981245517730713
1751389813403613200,6.73361328125,4.83933687210083,1.6713963747024536,2.0280001163482666
1751389813413658000,6.743658203125,5.241608619689941,1.393889307975769,2.0373897552490234
1751389813423704000,6.7537041015625,5.459000110626221,1.1561223268508911,1.7792962789535522
1751389813433750300,6.763750244140625,5.415910243988037,0.8031178116798401,1.4322296380996704
1751389813443795200,6.773795166015625,5.1151347160339355,0.29774439334869385,1.1436889171600342
1751389813453841200,6.783841064453125,4.606354713439941,-0.17206907272338867,0.9801754355430603
1751389813463887000,6.79388720703125,4.046201229095459,-0.3731902241706848,0.9144262671470642
1751389813473932000,6.80393212890625,3.5279390811920166,-0.5225472450256348,0.8686075806617737
1751389813483978000,6.81397802734375,3.031024694442749,-0.4483071267604828,0.8276556134223938
1751389813494024000,6.82402392578125,2.612712860107422,-0.2909327745437622,0.7436099052429199
1751389813504070100,6.834070068359375,2.269120454788208,-0.22665660083293915,0.535300076007843
1751389813514115000,6.844114990234375,1.979575276374817,-0.36631789803504944,0.19705593585968018
1751389813524161000,6.8541611328125,1.6811137199401855,-0.7468811869621277,-0.22952121496200562
1751389813534207200,6.864207275390625,1.3810012340545654,-1.1311439275741577,-0.6564921140670776
1751389813544252200,6.874252197265625,1.1182681322097778,-1.4453399181365967,-1.035427451133728
1751389813554298000,6.884298095703125,0.9044809937477112,-1.751373291015625,-1.310670256614685
1751389813564344000,6.894343994140625,0.7255317568778992,-2.13004994392395,-1.4031929969787598
1751389813574389200,6.90438916015625,0.5397276282310486,-2.464341878890991,-1.320994257926941
1751389813584435200,6.914435302734375,0.3391721844673157,-2.7126824855804443,-1.1427291631698608
1751389813594481200,6.924481201171875,0.13431425392627716,-2.8891003131866455,-0.9626104831695557
1751389813604526000,6.934526123046875,-0.06451254338026047,-2.986323356628418,-0.8436369895935059
1751389813614572000,6.944572021484375,-0.25073006749153137,-3.0485117435455322,-0.7787796854972839
1751389813624618000,6.954617919921875,-0.4091862738132477,-3.078050374984741,-0.7347033023834229
1751389813634663200,6.9646630859375,-0.5214120149612427,-3.03932523727417,-0.6892212629318237
1751389813644709000,6.974709228515625,-0.5729095935821533,-2.9664735794067383,-0.6422257423400879
1751389813654755000,6.984755126953125,-0.5463594794273376,-2.817720890045166,-0.5875989198684692
1751389813664800300,6.99480029296875,-0.4899657070636749,-2.6149001121520996,-0.535069465637207
1751389813674846200,7.00484619140625,-0.4197520315647125,-2.370178699493408,-0.4966161251068115
1751389813684892200,7.01489208984375,-0.37252485752105713,-2.08880615234375,-0.4690508246421814
1751389813694937300,7.024937255859375,-0.38680124282836914,-1.7814903259277344,-0.4969017505645752
1751389813704983300,7.0349833984375,-0.4471237063407898,-1.4166464805603027,-0.6222394704818726
1751389813715029200,7.045029296875,-0.5063526630401611,-0.7496439814567566,-0.937032163143158
1751389813725074200,7.05507421875,-0.6014464497566223,0.5441796183586121,-1.408113956451416
1751389813735120100,7.0651201171875,-0.6983526945114136,1.1933084726333618,-0.6900127530097961
1751389813745166000,7.075166015625,-0.29057958722114563,2.1241023540496826,0.4390315115451813
1751389813755211000,7.0852109375,0.16192500293254852,2.7525651454925537,0.9373010396957397
1751389813765257200,7.09525732421875,0.2768031060695648,2.454331636428833,0.7737616300582886
1751389813775303200,7.10530322265625,-0.09016409516334534,1.6408346891403198,0.3010369837284088
1751389813785348000,7.11534814453125,-0.42862603068351746,0.7930004596710205,-0.21562691032886505
1751389813795394300,7.125394287109375,-0.747586727142334,0.5068356394767761,-0.6230308413505554
1751389813805440300,7.135440185546875,-1.0124465227127075,0.8051288723945618,-0.767349123954773
1751389813815486200,7.145486328125,-1.0949015617370605,1.128450870513916,-0.7806541919708252
1751389813825531100,7.15553125,-1.0064787864685059,1.4522355794906616,-0.7750493288040161
1751389813835577300,7.165577392578125,-0.7781871557235718,1.66905677318573,-0.7060964703559875
1751389813845623000,7.175623046875,-0.5723128318786621,1.5839139223098755,-0.49000439047813416
1751389813855668000,7.18566796875,-0.4978545010089874,1.3914904594421387,-0.14281705021858215
1751389813865714200,7.195714111328125,-0.3948218524456024,1.5773786306381226,0.24076150357723236
1751389813875760000,7.205760009765625,-0.10649906098842621,2.284374237060547,0.6712895631790161
1751389813885808400,7.215808349609375,0.36681097745895386,2.9020211696624756,0.7950392365455627
1751389813895854600,7.2258544921875,0.6466971635818481,2.4986014366149902,0.7084409594535828
1751389813905900500,7.235900634765625,0.691896915435791,1.6290034055709839,0.5040236115455627
1751389813915945500,7.245945556640625,0.5037412643432617,0.7701272368431091,0.2314801961183548
1751389813925991400,7.255991455078125,0.1350972205400467,-0.05503694713115692,-0.001965575385838747
1751389813936037600,7.26603759765625,-0.3474735617637634,-0.7688332796096802,-0.22098086774349213
1751389813946082600,7.27608251953125,-0.8343414664268494,-1.3779232501983643,-0.3993348777294159
1751389813956128500,7.28612841796875,-1.223740577697754,-1.780226230621338,-0.4907563030719757
1751389813966174700,7.2961748046875,-1.4819436073303223,-1.9911106824874878,-0.5052388310432434
1751389813976219400,7.306219482421875,-1.6330208778381348,-2.096940755844116,-0.45133885741233826
1751389813986265300,7.316265380859375,-1.7084219455718994,-2.1641852855682373,-0.36191070079803467
1751389813996311600,7.3263115234375,-1.6961538791656494,-2.217186212539673,-0.28267359733581543
1751389814006357500,7.336357421875,-1.5877536535263062,-2.2524073123931885,-0.23736602067947388
1751389814016402400,7.34640234375,-1.441397786140442,-2.2885775566101074,-0.22784702479839325
1751389814026448400,7.356448486328125,-1.2965724468231201,-2.3289003372192383,-0.23156213760375977
1751389814036494600,7.36649462890625,-1.179083228111267,-2.291440486907959,-0.22757020592689514
1751389814046539500,7.37653955078125,-1.1117212772369385,-2.1456570625305176,-0.2273465096950531
1751389814056585500,7.38658544921875,-1.0947363376617432,-1.9060983657836914,-0.2836194634437561
1751389814066631700,7.396631591796875,-1.1149446964263916,-1.6018521785736084,-0.3877714276313782
1751389814076676600,7.406676513671875,-1.1743260622024536,-1.160544991493225,-0.5622625946998596
1751389814086722600,7.41672265625,-1.2700139284133911,-0.42470794916152954,-0.8534635305404663
1751389814096768500,7.4267685546875,-1.3394298553466797,0.42235875129699707,-1.1680506467819214
1751389814106813400,7.4368134765625,-1.36680269241333,1.1182746887207031,-1.391721487045288
1751389814116859400,7.446859375,-1.3665258884429932,1.5331478118896484,-1.4625053405761719
1751389814126905300,7.4569052734375,-1.3478004932403564,1.7615671157836914,-1.4547169208526611
1751389814136950500,7.466950439453125,-1.320115327835083,1.921091079711914,-1.430148959159851
1751389814146996500,7.47699658203125,-1.2884875535964966,2.0270822048187256,-1.3996031284332275
1751389814157042400,7.48704248046875,-1.237657070159912,2.099205493927002,-1.3651577234268188
1751389814167087600,7.497087646484375,-1.176921010017395,2.1338908672332764,-1.3234009742736816
1751389814177133600,7.507133544921875,-1.0944831371307373,2.162931203842163,-1.2729638814926147
1751389814187179500,7.517179443359375,-1.0176109075546265,2.215855360031128,-1.1966041326522827
1751389814197225500,7.5272255859375,-0.9657252430915833,2.2765376567840576,-1.081042766571045
1751389814207270700,7.537270751953125,-0.9384621977806091,2.274277687072754,-0.924494206905365
1751389814217316600,7.547316650390625,-0.9509321451187134,2.1764237880706787,-0.7731060981750488
1751389814227362300,7.5573623046875,-1.0145984888076782,2.0331954956054688,-0.6278655529022217
1751389814237407500,7.567407470703125,-1.0992358922958374,1.8304187059402466,-0.5160509347915649
1751389814247453400,7.577453369140625,-1.1679332256317139,1.6110754013061523,-0.45134684443473816
1751389814257499400,7.58749951171875,-1.1733747720718384,1.4426411390304565,-0.41482630372047424
1751389814267544600,7.597544677734375,-1.09137761592865,1.3376352787017822,-0.39831817150115967
1751389814277590500,7.607590576171875,-0.938861608505249,1.2942564487457275,-0.4031435251235962
1751389814287636500,7.617636474609375,-0.7786300778388977,1.3944592475891113,-0.4249660074710846
1751389814297681700,7.627681640625,-0.6654548645019531,2.2393524646759033,-0.5298312306404114
1751389814307727600,7.6377275390625,-0.6352679133415222,3.208272695541382,-0.5744583606719971
1751389814317773600,7.647773681640625,-0.6776822805404663,3.44055438041687,-0.48849382996559143
1751389814327819500,7.657819580078125,-0.7655855417251587,2.9767439365386963,-0.30509844422340393
1751389814337864400,7.667864501953125,-0.8895174860954285,2.1414332389831543,-0.05422911420464516
1751389814347910400,7.677910400390625,-1.002134084701538,1.3576635122299194,0.2580081522464752
1751389814357956400,7.687956298828125,-1.0317240953445435,1.121118187904358,0.6327338218688965
1751389814368001500,7.69800146484375,-0.9159850478172302,1.229239821434021,1.0472010374069214
1751389814378047500,7.708047607421875,-0.647948682308197,0.9096689224243164,1.3754384517669678
1751389814388093400,7.718093505859375,-0.290490984916687,0.11831537634134293,1.5411039590835571
1751389814398138600,7.728138671875,0.12083418667316437,-0.6419293284416199,1.5935611724853516
1751389814408184600,7.7381845703125,0.5408104658126831,-0.6131091117858887,1.4725596904754639
1751389814418230500,7.74823046875,0.8975477814674377,0.1429622918367386,1.1054582595825195
1751389814428275700,7.758275634765625,1.325657606124878,0.42687416076660156,0.8886978626251221
1751389814438321700,7.76832177734375,1.8345853090286255,0.20290488004684448,0.8886975049972534
1751389814448367600,7.77836767578125,2.4601287841796875,-0.24541164934635162,1.0452214479446411
1751389814458412300,7.788412353515625,3.1364591121673584,-0.666367769241333,1.2398345470428467
1751389814468458500,7.79845849609375,3.7240707874298096,-1.052891731262207,1.3915787935256958
1751389814478504400,7.80850439453125,4.199514389038086,-1.3663783073425293,1.5164614915847778
1751389814488550400,7.81855029296875,4.558047771453857,-1.544007658958435,1.6069077253341675
1751389814498595600,7.828595703125,4.8309712409973145,-1.3991734981536865,1.6696586608886719
1751389814508641500,7.8386416015625,5.024844646453857,-0.8040152788162231,1.6263798475265503
1751389814518687500,7.8486875,5.133002281188965,0.117188461124897,1.4463183879852295
1751389814528732400,7.858732421875,5.043962478637695,0.9752259254455566,1.2091714143753052
1751389814538778600,7.868778564453125,4.775982856750488,1.4502314329147339,1.0098096132278442
1751389814548824600,7.878824462890625,4.414703845977783,1.703535795211792,0.8951290845870972
1751389814558869500,7.888869384765625,4.003738880157471,1.833560585975647,0.7891597151756287
1751389814568915700,7.898915771484375,3.546173334121704,1.996322512626648,0.6288917660713196
1751389814578961700,7.908961669921875,3.0231473445892334,2.052063465118408,0.40047428011894226
1751389814589007600,7.919007568359375,2.488762378692627,1.7448477745056152,0.010057801380753517
1751389814599052500,7.929052490234375,2.027578353881836,0.9203328490257263,-0.462919145822525
1751389814609098500,7.939098388671875,1.6050169467926025,-0.4448149800300598,-0.8327222466468811
1751389814619144400,7.94914453125,1.2164751291275024,-1.871005654335022,-1.0785053968429565
1751389814629189400,7.959189453125,0.8971158266067505,-3.027594804763794,-1.2381465435028076
1751389814639235600,7.969235595703125,0.6518384218215942,-3.720672130584717,-1.3191065788269043
1751389814649281500,7.979281494140625,0.47010964155197144,-4.024703025817871,-1.3187392950057983
1751389814659326500,7.989326416015625,0.296638160943985,-4.025974750518799,-1.2775776386260986
1751389814669372700,7.99937255859375,0.11731792986392975,-3.8532252311706543,-1.2300612926483154
1751389814679418600,8.009418701171874,-0.07034339010715485,-3.5961906909942627,-1.135312557220459
1751389814689464600,8.019464599609375,-0.28123220801353455,-3.2989261150360107,-1.0038549900054932
1751389814699509500,8.029509521484375,-0.4948523938655853,-3.0083212852478027,-0.8507772088050842
1751389814709555700,8.0395556640625,-0.6845575571060181,-2.813767194747925,-0.698590874671936
1751389814719601400,8.049601318359375,-0.8394744396209717,-2.6622447967529297,-0.5526236295700073
1751389814729646300,8.059646240234375,-0.9558671116828918,-2.5188939571380615,-0.40285754203796387
1751389814739692500,8.069692626953126,-1.0363484621047974,-2.3357229232788086,-0.2583593726158142
1751389814749738500,8.079738525390624,-1.0689280033111572,-2.1521873474121094,-0.1382524073123932
1751389814759783400,8.089783447265624,-1.0494076013565063,-2.009450912475586,-0.048309147357940674
1751389814769829600,8.09982958984375,-0.9814480543136597,-1.8778985738754272,-0.016485437750816345
1751389814779875600,8.10987548828125,-0.8579314947128296,-1.7166813611984253,-0.04402845352888107
1751389814789920500,8.11992041015625,-0.7158465385437012,-1.4731062650680542,-0.1779191493988037
1751389814799966500,8.129966552734375,-0.5844846367835999,-1.0015860795974731,-0.49625787138938904
1751389814810012700,8.1400126953125,-0.46569937467575073,0.12137628346681595,-1.081016182899475
1751389814820057300,8.150057373046875,-0.5087486505508423,1.4464282989501953,-1.2177495956420898
1751389814830103300,8.160103271484376,-0.26332107186317444,2.3441243171691895,-0.0892404243350029
1751389814840149500,8.1701494140625,0.25832200050354004,3.4570186138153076,0.7690876722335815
1751389814850195500,8.180195556640625,0.7768804430961609,3.8547089099884033,1.035548210144043
1751389814860240400,8.190240478515625,0.8382830619812012,3.412740707397461,0.7900995016098022
1751389814870286600,8.20028662109375,0.4369366765022278,2.4463300704956055,0.3929918110370636
1751389814880329000,8.210328857421874,-0.22683560848236084,1.659423589706421,-0.11004465818405151
1751389814890374000,8.220373779296875,-1.0611501932144165,1.4659926891326904,-0.6041489243507385
1751389814900419800,8.230419921875,-1.6314488649368286,1.576750636100769,-0.9390664100646973
1751389814910466000,8.240466064453125,-1.7431089878082275,1.7091586589813232,-1.1091177463531494
1751389814920511000,8.250510986328125,-1.5726557970046997,1.7350032329559326,-1.1361377239227295
1751389814930557000,8.260556884765625,-1.2234392166137695,1.3567818403244019,-1.0733190774917603
1751389814940603100,8.27060302734375,-0.8878359198570251,0.66782546043396,-0.8378627896308899
1751389814950649000,8.280649169921874,-0.6650164127349854,-0.0861130803823471,-0.3972236216068268
1751389814960693800,8.29069384765625,-0.43840426206588745,-0.46315693855285645,0.2591550350189209
1751389814970740000,8.300739990234375,0.10552854090929031,-0.18927130103111267,0.4702734053134918
1751389814980786000,8.310785888671875,0.5990359783172607,-0.14760498702526093,0.4232490062713623
1751389814990830800,8.320830810546875,0.9366922974586487,-0.6441007852554321,0.3294958770275116
1751389815000876800,8.330876708984375,1.0412179231643677,-1.0429850816726685,0.0693226084113121
1751389815010923000,8.340923095703126,0.9292623400688171,-1.012398362159729,-0.4609508216381073
1751389815020968000,8.350968017578126,0.6986631155014038,-0.8180832862854004,-0.8522506952285767
1751389815031014000,8.361013916015626,0.30713263154029846,-0.7526240944862366,-0.8827124834060669
1751389815041060000,8.37106005859375,-0.18582449853420258,-0.7659835815429688,-0.8014838695526123
1751389815051106000,8.38110595703125,-0.6904823184013367,-0.6709409356117249,-0.6902007460594177
1751389815061151000,8.39115087890625,-1.1209427118301392,-0.5126891732215881,-0.5303713083267212
1751389815071197000,8.401197021484375,-1.4284112453460693,-0.38615304231643677,-0.31901881098747253
1751389815081243100,8.4112431640625,-1.5934756994247437,-0.34244227409362793,-0.09341767430305481
1751389815091287800,8.421287841796875,-1.628644347190857,-0.4197801947593689,0.06511577218770981
1751389815101333800,8.431333740234376,-1.5591301918029785,-0.5719514489173889,0.18483376502990723
1751389815111380000,8.4413798828125,-1.4588857889175415,-0.7859649658203125,0.2628100514411926
1751389815121425000,8.4514248046875,-1.375893473625183,-1.0218141078948975,0.290634423494339
1751389815131470800,8.461470947265624,-1.3360285758972168,-1.260572075843811,0.28656935691833496
1751389815141516800,8.471516845703125,-1.3225740194320679,-1.4168723821640015,0.25696688890457153
1751389815151562000,8.48156201171875,-1.308363914489746,-1.451490879058838,0.19504840672016144
1751389815161608000,8.49160791015625,-1.3023179769515991,-1.3695859909057617,0.09202621877193451
1751389815171654000,8.50165380859375,-1.311835765838623,-1.2055575847625732,-0.05022386834025383
1751389815181700000,8.5117001953125,-1.348899245262146,-1.0193626880645752,-0.23826736211776733
1751389815191745000,8.5217451171875,-1.3937122821807861,-0.8172677159309387,-0.4450434148311615
1751389815201790700,8.531790771484374,-1.4243648052215576,-0.5849652290344238,-0.6501188278198242
1751389815211837000,8.5418369140625,-1.4560105800628662,-0.22727444767951965,-0.8870147466659546
1751389815221881900,8.5518818359375,-1.4855077266693115,0.2524496018886566,-1.1368496417999268
1751389815231927800,8.561927734375,-1.5016376972198486,0.6849671602249146,-1.3102205991744995
1751389815241973800,8.571973876953125,-1.4962506294250488,0.9987136721611023,-1.3933016061782837
1751389815252019000,8.58201904296875,-1.4655598402023315,1.2762794494628906,-1.4425098896026611
1751389815262065000,8.59206494140625,-1.4014850854873657,1.5426195859909058,-1.4486937522888184
1751389815272110800,8.60211083984375,-1.30089271068573,1.7780758142471313,-1.4348536729812622
1751389815282157000,8.612156982421874,-1.184133529663086,1.9771697521209717,-1.3994327783584595
1751389815292202000,8.622201904296874,-1.0885332822799683,2.143054962158203,-1.3635238409042358
1751389815302248000,8.632248046875,-1.0708423852920532,2.2973313331604004,-1.3164656162261963
1751389815312294000,8.6422939453125,-1.0961424112319946,2.5449891090393066,-1.205897331237793
1751389815322338800,8.6523388671875,-1.1564165353775024,2.6972172260284424,-1.0818073749542236
1751389815332384800,8.662384765625,-1.267390251159668,2.635002613067627,-1.0125826597213745
1751389815342430700,8.6724306640625,-1.3900521993637085,2.438159465789795,-0.9567121267318726
1751389815352476000,8.682475830078126,-1.4467583894729614,2.1691582202911377,-0.9181269407272339
1751389815362521900,8.69252197265625,-1.4205156564712524,1.8260126113891602,-0.9007115364074707
1751389815372567800,8.70256787109375,-1.323407769203186,1.429359793663025,-0.8882466554641724
1751389815382613000,8.712613037109374,-1.1859151124954224,1.0394117832183838,-0.8613003492355347
1751389815392659000,8.722658935546875,-1.0199291706085205,0.712093710899353,-0.7983578443527222
1751389815402705000,8.732704833984375,-0.8658022284507751,0.4891588091850281,-0.6942639946937561
1751389815412750800,8.742750732421875,-0.7605834007263184,0.4385156035423279,-0.5485299825668335
1751389815422796000,8.752796142578125,-0.7121595740318298,0.9883629083633423,-0.37413206696510315
1751389815432842000,8.762842041015626,-0.7552175521850586,2.5916130542755127,-0.17867575585842133
1751389815442888000,8.772887939453126,-0.8578041195869446,3.91382098197937,0.08744535595178604
1751389815452932900,8.782932861328124,-0.936598539352417,3.9873571395874023,0.3700544238090515
1751389815462978800,8.792978759765624,-0.9074603319168091,3.164633274078369,0.6485401391983032
1751389815473024800,8.803024658203125,-0.7293989658355713,1.9394054412841797,0.8912374377250671
1751389815483070000,8.813070068359375,-0.4080531895160675,0.7729288935661316,1.1055055856704712
1751389815493116000,8.823115966796875,0.018034720793366432,0.08203700929880142,1.3350123167037964
1751389815503161900,8.833161865234375,0.4774169921875,0.28711384534835815,1.5562857389450073
1751389815513207800,8.843207763671876,0.8800104856491089,0.8829982876777649,1.5097901821136475
1751389815523253000,8.8532529296875,1.3309262990951538,0.8368399739265442,1.4193408489227295
1751389815533299000,8.863298828125,1.9065860509872437,0.19700834155082703,1.4226690530776978
1751389815543345000,8.873344970703124,2.6362967491149902,-0.7563130259513855,1.4035934209823608
1751389815553390000,8.88339013671875,3.4551444053649902,-1.5372672080993652,1.2888785600662231
1751389815563436000,8.89343603515625,4.158951759338379,-2.026996612548828,1.2015008926391602
1751389815573482000,8.90348193359375,4.706959247589111,-2.271104097366333,1.2113420963287354
1751389815583527000,8.91352685546875,5.085415363311768,-2.1289615631103516,1.3258709907531738
1751389815593572900,8.92357275390625,5.351004600524902,-1.5746737718582153,1.5014313459396362
1751389815603618800,8.933618896484376,5.487735271453857,-0.7199996709823608,1.6331082582473755
1751389815613664000,8.9436640625,5.414405822753906,0.168893963098526,1.6327396631240845
1751389815623710000,8.9537099609375,5.15244722366333,0.8720635771751404,1.5748687982559204
1751389815633756000,8.963755859375,4.7900710105896,1.3581503629684448,1.52245032787323
1751389815643801900,8.9738017578125,4.3733601570129395,1.7282432317733765,1.4559978246688843
1751389815653847000,8.983846923828125,3.9184622764587402,2.066404342651367,1.2815035581588745
1751389815663893000,8.99389306640625,3.402195692062378,2.16896653175354,0.9378809332847595
1751389815673939000,9.00393896484375,2.8715808391571045,2.091430425643921,0.5030059218406677
1751389815683984100,9.013984130859376,2.3894600868225098,1.7260313034057617,-0.05490324646234512
1751389815694029800,9.02402978515625,1.9723588228225708,0.8774279952049255,-0.6493040323257446
1751389815704075800,9.03407568359375,1.580535650253296,-0.540389358997345,-1.056998372077942
1751389815714121000,9.044120849609374,1.2550315856933594,-2.0814924240112305,-1.237716555595398
1751389815724167000,9.0541669921875,1.0110013484954834,-3.3647825717926025,-1.3390891551971436
1751389815734212900,9.064212890625,0.7979940176010132,-4.06576681137085,-1.4214333295822144
1751389815744258000,9.074258056640625,0.5949468612670898,-4.370965480804443,-1.4802451133728027
1751389815754304000,9.084303955078125,0.39015933871269226,-4.422259330749512,-1.497065544128418
1751389815764350000,9.094349853515626,0.15795943140983582,-4.2836761474609375,-1.4755710363388062
1751389815774396000,9.10439599609375,-0.08954089879989624,-3.9829018115997314,-1.4277808666229248
1751389815784441000,9.114441162109374,-0.33288997411727905,-3.6160953044891357,-1.3773815631866455
1751389815794487000,9.124487060546874,-0.5541794896125793,-3.2711188793182373,-1.2845730781555176
1751389815804533000,9.134532958984375,-0.7514817714691162,-3.0124459266662598,-1.162874698638916
1751389815814578000,9.144577880859375,-0.9171327948570251,-2.8476085662841797,-1.0084351301193237
1751389815824623900,9.154623779296875,-1.0469210147857666,-2.6960442066192627,-0.8404269218444824
1751389815834669800,9.164669921875,-1.1257684230804443,-2.510298013687134,-0.6571124792098999
1751389815844714800,9.17471484375,-1.1632394790649414,-2.337331771850586,-0.4884021580219269
1751389815854761000,9.184760986328126,-1.1541876792907715,-2.1969552040100098,-0.3414803445339203
1751389815864807000,9.194806884765624,-1.0923086404800415,-2.092043399810791,-0.23784859478473663
1751389815874851800,9.204851806640624,-0.9838658571243286,-1.9845759868621826,-0.2091575562953949
1751389815884897500,9.2148974609375,-0.8221402168273926,-1.7391889095306396,-0.30827659368515015
1751389815894943500,9.224943603515625,-0.5936644077301025,-0.9778167009353638,-0.6766581535339355
1751389815904989400,9.234989501953125,-0.43347418308258057,0.8033174276351929,-1.2389565706253052
1751389815915034600,9.24503466796875,-0.26978540420532227,1.8028696775436401,-0.153288334608078
1751389815925080600,9.25508056640625,0.263118714094162,3.1070282459259033,0.6719986200332642
1751389815935126500,9.26512646484375,0.855726957321167,3.5885181427001953,0.850139856338501
1751389815945171700,9.275171630859376,1.3206530809402466,3.34633731842041,0.6203579902648926
1751389815955217700,9.2852177734375,1.340402364730835,2.53302001953125,0.22348999977111816
1751389815965263600,9.295263671875,0.7304647564888,1.610100507736206,-0.11213992536067963
1751389815975308500,9.30530859375,-0.20214791595935822,1.255882740020752,-0.4334476590156555
1751389815985354800,9.315354736328125,-1.2608336210250854,1.4854236841201782,-0.7042844295501709
1751389815995400700,9.325400634765625,-1.964926838874817,1.8456079959869385,-0.9026113748550415
1751389816005445400,9.3354453125,-1.8068771362304688,2.017664909362793,-1.0168496370315552
1751389816015491600,9.34549169921875,-1.2295533418655396,2.077793598175049,-0.9067049622535706
1751389816025537500,9.35553759765625,-0.6782323122024536,2.276235818862915,-0.4318389296531677
1751389816035583500,9.36558349609375,-0.12524020671844482,2.056307315826416,-0.019892407581210136
1751389816045628700,9.375628662109374,0.37482109665870667,1.1772785186767578,0.1621391624212265
1751389816055674600,9.385674560546875,0.6772586703300476,0.015581294894218445,0.34559181332588196
1751389816065720600,9.395720458984375,0.7896271347999573,-0.97710782289505,0.5385650396347046
1751389816075765500,9.405765625,0.6528937816619873,-1.0979496240615845,0.570132315158844
1751389816085811700,9.415811767578125,0.37459415197372437,-0.6595109701156616,0.3330387473106384
1751389816095857700,9.425857666015625,0.04632757976651192,-0.33142656087875366,-0.003239667508751154
1751389816105902300,9.43590234375,-0.3278377652168274,-0.37822455167770386,-0.31254664063453674
1751389816115948500,9.445948486328126,-0.7996487617492676,-0.6680590510368347,-0.5613921880722046
1751389816125994500,9.455994384765624,-1.2325503826141357,-0.9206345081329346,-0.6946175694465637
1751389816136039400,9.466039306640624,-1.530786156654358,-1.0056788921356201,-0.6889844536781311
1751389816146085400,9.47608544921875,-1.6985526084899902,-1.0150929689407349,-0.5972813963890076
1751389816156131600,9.486131591796875,-1.7371042966842651,-0.9758532047271729,-0.46745386719703674
1751389816166177500,9.496177490234375,-1.6810412406921387,-0.9963463544845581,-0.3515915870666504
1751389816176222500,9.506222412109375,-1.5877972841262817,-1.0302680730819702,-0.26331043243408203
1751389816186268700,9.5162685546875,-1.4812889099121094,-1.0550421476364136,-0.17721161246299744
1751389816196314600,9.526314697265626,-1.3825128078460693,-1.0618691444396973,-0.09276784956455231
1751389816206359600,9.536359619140624,-1.3176789283752441,-1.0200029611587524,-0.02833026647567749
1751389816216405500,9.546405517578124,-1.292816162109375,-0.9300118088722229,-0.04974394291639328
1751389816226451700,9.55645166015625,-1.2852401733398438,-0.7982954978942871,-0.1661129593849182
1751389816236496400,9.566496337890625,-1.2864543199539185,-0.6995923519134521,-0.31882715225219727
1751389816246542300,9.576542236328125,-1.293711543083191,-0.651897132396698,-0.4929232895374298
1751389816256588500,9.586588623046875,-1.3141515254974365,-0.6070294976234436,-0.6603090763092041
1751389816266633500,9.596633544921875,-1.382751226425171,-0.3482322096824646,-0.930416464805603
1751389816276679400,9.606679443359376,-1.5156712532043457,0.2828035354614258,-1.3482571840286255
1751389816286725600,9.6167255859375,-1.655963659286499,0.9765491485595703,-1.734612226486206
1751389816296770600,9.6267705078125,-1.7660852670669556,1.3659852743148804,-1.9282267093658447
1751389816306816500,9.63681640625,-1.82442307472229,1.3758931159973145,-1.956958293914795
1751389816316862500,9.646862548828125,-1.8402009010314941,1.2663921117782593,-1.9376109838485718
1751389816326908700,9.65690869140625,-1.795771598815918,1.1270301342010498,-1.9125834703445435
1751389816336953600,9.66695361328125,-1.6798750162124634,0.9886909127235413,-1.8693231344223022
1751389816346999600,9.67699951171875,-1.4897961616516113,0.8632773160934448,-1.8100401163101196
1751389816357045800,9.687045654296876,-1.264772891998291,0.7663275599479675,-1.729190468788147
1751389816367090400,9.69709033203125,-1.0663713216781616,0.6673300862312317,-1.635878324508667
1751389816377136400,9.707136474609374,-0.9346007704734802,0.5733615159988403,-1.5499978065490723
1751389816387182600,9.7171826171875,-0.8628443479537964,0.5547055602073669,-1.4490033388137817
1751389816397227500,9.7272275390625,-0.8492183089256287,0.6507726907730103,-1.3224514722824097
1751389816407273500,9.7372734375,-0.871546745300293,0.9164734482765198,-1.1839758157730103
1751389816417319400,9.7473193359375,-0.8875542283058167,1.9523144960403442,-1.1028239727020264
1751389816427364600,9.757364501953125,-0.8610971570014954,3.54988956451416,-1.0600584745407104
1751389816437410600,9.76741064453125,-0.8317297101020813,4.537258625030518,-0.9207640886306763
1751389816447456500,9.77745654296875,-0.8288528323173523,4.635251522064209,-0.6860090494155884
1751389816457501700,9.787501708984376,-0.8039200305938721,4.116861820220947,-0.3933902382850647
1751389816467547600,9.797547607421874,-0.7184673547744751,3.1392621994018555,0.009245684370398521
1751389816477593600,9.807593505859375,-0.5830988883972168,1.7827562093734741,0.583406925201416
1751389816487639600,9.8176396484375,-0.462167888879776,0.3630673289299011,1.077793836593628
1751389816497684500,9.8276845703125,-0.43653789162635803,-0.8294032216072083,1.3610031604766846
1751389816507730400,9.83773046875,-0.48873579502105713,-1.4834403991699219,1.5706145763397217
1751389816517776400,9.8477763671875,-0.5912294387817383,-1.300527811050415,1.7100200653076172
1751389816527821600,9.857821533203126,-0.6851121783256531,-0.5679128766059875,1.6852045059204102
1751389816537867500,9.867867431640626,-0.7075202465057373,-0.2755894660949707,1.5348745584487915
1751389816547913500,9.87791357421875,-0.6079505681991577,-0.6363196969032288,1.3194540739059448
1751389816557958700,9.887958740234374,-0.3864080011844635,-1.2007466554641724,1.059890627861023
1751389816568004600,9.898004638671875,-0.0606280192732811,-1.5389961004257202,0.7401657700538635
1751389816578050600,9.908050537109375,0.32059311866760254,-1.236954689025879,0.34721532464027405
1751389816588095700,9.918095703125,0.7345815896987915,-0.2631513476371765,0.06359557062387466
1751389816598141700,9.9281416015625,1.2277294397354126,0.917349636554718,0.10121777653694153
1751389816608187400,9.9381875,1.8141016960144043,1.9501787424087524,0.4841657280921936
1751389816618232600,9.948232666015626,2.4851670265197754,2.5069942474365234,0.9558150172233582
1751389816628278500,9.958278564453124,3.1698811054229736,2.352560043334961,1.3107268810272217
1751389816638324500,9.968324462890624,3.7618842124938965,1.8889237642288208,1.5716452598571777
1751389816648370400,9.978370361328125,4.259432792663574,1.3551914691925049,1.7938567399978638
1751389816658415600,9.98841552734375,4.6598711013793945,0.9081655740737915,2.005599021911621
1751389816668461600,9.998461669921875,4.982817649841309,0.8794859051704407,2.1496334075927734
1751389816678507500,10.008507568359375,5.235663414001465,1.45792818069458,1.9746328592300415
1751389816688552700,10.018552734375,5.314174175262451,1.8752552270889282,1.5114513635635376
1751389816698598700,10.0285986328125,5.158976078033447,1.6477917432785034,1.0695559978485107
1751389816708644600,10.03864453125,4.811997413635254,0.982866108417511,0.8051232099533081
1751389816718689500,10.048689453125,4.291323661804199,0.2187144160270691,0.6750940680503845
1751389816728735500,10.058735595703125,3.636608839035034,-0.4105667471885681,0.5660771131515503
1751389816738781400,10.068781494140625,2.9295992851257324,-0.7835794687271118,0.4397332966327667
1751389816748826600,10.07882666015625,2.294938325881958,-0.9599032998085022,0.2545711398124695
1751389816758872600,10.08887255859375,1.8665635585784912,-1.0238746404647827,0.017918653786182404
1751389816768918500,10.09891845703125,1.524910569190979,-1.0928353071212769,-0.263657808303833
1751389816778963500,10.10896337890625,1.2179332971572876,-1.2083600759506226,-0.5727312564849854
1751389816789009700,10.119009765625,0.9404878616333008,-1.4370999336242676,-0.874779462814331
1751389816799055600,10.1290556640625,0.7201328873634338,-1.7055861949920654,-1.0888890027999878
1751389816809100500,10.1391005859375,0.5304632186889648,-1.927857756614685,-1.1374849081039429
1751389816819146800,10.149146728515625,0.36083585023880005,-2.1892688274383545,-1.0543367862701416
1751389816829192700,10.159192626953125,0.19609150290489197,-2.468010425567627,-0.910984992980957
1751389816839238700,10.16923876953125,0.024721086025238037,-2.7106385231018066,-0.7610801458358765
1751389816849283600,10.17928369140625,-0.14889748394489288,-2.873257875442505,-0.6452145576477051
1751389816859329500,10.18932958984375,-0.30418452620506287,-2.9231760501861572,-0.5732599496841431
1751389816869375500,10.19937548828125,-0.4330355226993561,-2.9288218021392822,-0.5373600721359253
1751389816879420400,10.20942041015625,-0.5236748456954956,-2.9322264194488525,-0.5074160099029541
1751389816889467000,10.219466796875,-0.5590580105781555,-2.8879966735839844,-0.48385122418403625
1751389816899513000,10.22951318359375,-0.5419477224349976,-2.8013436794281006,-0.4487566351890564
1751389816909558000,10.23955810546875,-0.4948646128177643,-2.6459524631500244,-0.39600321650505066
1751389816919604000,10.24960400390625,-0.4365781545639038,-2.385061740875244,-0.31199222803115845
1751389816929650200,10.259650146484375,-0.38706862926483154,-2.072713851928711,-0.20128825306892395
1751389816939695000,10.269695068359376,-0.37435203790664673,-1.752007246017456,-0.09492851793766022
1751389816949741000,10.279740966796876,-0.3999117612838745,-1.4643831253051758,-0.07651959359645844
1751389816959787000,10.289787109375,-0.4272288680076599,-1.0631169080734253,-0.205645352602005
1751389816969832000,10.29983203125,-0.4338798224925995,-0.3675153851509094,-0.5481445789337158
1751389816979878000,10.3098779296875,-0.5231319069862366,0.4972926378250122,-0.8794838190078735
1751389816989923800,10.319923828125,-0.6113306879997253,0.8702865839004517,-0.23632995784282684
1751389816999969000,10.329968994140625,-0.2532481849193573,2.1746695041656494,0.30308797955513
1751389817010015000,10.340014892578125,0.19166550040245056,2.9989843368530273,0.5414754152297974
1751389817020061000,10.35006103515625,0.3259950578212738,2.939055919647217,0.3766563832759857
1751389817030106000,10.360106201171876,-0.08747360855340958,2.3733890056610107,0.056241460144519806
1751389817040152000,10.370152099609374,-0.6641228199005127,1.8356956243515015,-0.26402896642684937
1751389817050198000,10.380197998046874,-1.3078051805496216,1.6030986309051514,-0.5773831009864807
1751389817060244000,10.390243896484375,-1.7655525207519531,1.6645699739456177,-0.8271529674530029
1751389817070289000,10.400288818359375,-1.8157848119735718,1.7033336162567139,-1.0300942659378052
1751389817080334800,10.4103349609375,-1.4650946855545044,1.6461303234100342,-1.1520931720733643
1751389817090380800,10.420380859375,-0.8693199753761292,1.2910523414611816,-1.0315195322036743
1751389817100426000,10.430426025390625,-0.3718947470188141,1.0379178524017334,-0.580937385559082
1751389817110472000,10.440471923828126,0.07037901133298874,0.8328366279602051,-0.054506171494722366
1751389817120518000,10.450517822265626,0.5196260809898376,0.1865774691104889,0.22751300036907196
1751389817130563000,10.46056298828125,0.8162919878959656,-0.7249282598495483,0.41718384623527527
1751389817140609000,10.470609130859375,0.9745441675186157,-1.5916436910629272,0.5538192391395569
1751389817150655000,10.480655029296875,0.9716151356697083,-1.838719129562378,0.4137183725833893
1751389817160700200,10.4907001953125,0.8257937431335449,-1.079814076423645,-0.33083727955818176
1751389817170746000,10.50074609375,0.6723203659057617,-0.27882587909698486,-1.041261076927185
1751389817180792000,10.5107919921875,0.38163045048713684,-0.09250286966562271,-1.2215757369995117
1751389817190837000,10.5208369140625,-0.049441851675510406,-0.16373273730278015,-1.2013810873031616
1751389817200883000,10.530883056640626,-0.5442025661468506,-0.15386039018630981,-1.1375744342803955
1751389817210929000,10.540928955078124,-1.0036957263946533,-0.06368260085582733,-0.9780771732330322
1751389817220974000,10.55097412109375,-1.3804563283920288,0.008964167907834053,-0.7325078845024109
1751389817231020000,10.56102001953125,-1.6258684396743774,-0.023053912445902824,-0.48340797424316406
1751389817241066000,10.57106591796875,-1.722725749015808,-0.17431853711605072,-0.24717441201210022
1751389817251112000,10.58111181640625,-1.7072216272354126,-0.4142337143421173,-0.027544505894184113
1751389817261157000,10.5911572265625,-1.6164679527282715,-0.6886839270591736,0.18701574206352234
1751389817271203000,10.601203125,-1.4949982166290283,-0.8951424360275269,0.39066338539123535
1751389817281249000,10.6112490234375,-1.3864883184432983,-1.0050148963928223,0.564694881439209
1751389817291294200,10.621294189453126,-1.3227503299713135,-1.0504076480865479,0.6490662097930908
1751389817301340200,10.631340087890624,-1.2848663330078125,-1.047852873802185,0.609918475151062
1751389817311386000,10.64138623046875,-1.2661900520324707,-1.0092294216156006,0.4877568185329437
1751389817321431000,10.65143115234375,-1.254057765007019,-0.9481196403503418,0.30625119805336
1751389817331477000,10.66147705078125,-1.2552646398544312,-0.8415054678916931,0.0934641882777214
1751389817341523000,10.67152294921875,-1.2628871202468872,-0.5979039669036865,-0.16612717509269714
1751389817351568000,10.68156787109375,-1.318694829940796,0.00171256298199296,-0.5795689821243286
1751389817361614000,10.691614013671876,-1.386522650718689,0.7464402914047241,-1.0378241539001465
1751389817371660000,10.701659912109376,-1.420049786567688,1.2469916343688965,-1.3496508598327637
1751389817381705000,10.711705078125,-1.4237065315246582,1.4161592721939087,-1.4831311702728271
1751389817391751200,10.721751220703124,-1.4200857877731323,1.4267990589141846,-1.5252342224121094
1751389817401797000,10.731797119140625,-1.4206408262252808,1.3995603322982788,-1.5517529249191284
1751389817411842000,10.741842041015625,-1.3975450992584229,1.350391149520874,-1.5651566982269287
1751389817421888000,10.751887939453125,-1.3575835227966309,1.3083986043930054,-1.5584282875061035
1751389817431934200,10.761934326171875,-1.305615782737732,1.278342366218567,-1.5227537155151367
1751389817441979000,10.771978759765625,-1.2531265020370483,1.2304041385650635,-1.44883131980896
1751389817452024800,10.78202490234375,-1.2339955568313599,1.1383010149002075,-1.3558127880096436
1751389817462071000,10.792071044921874,-1.2633204460144043,0.9969750046730042,-1.250326156616211
1751389817472116000,10.802115966796874,-1.3266711235046387,0.7957121729850769,-1.1545218229293823
1751389817482162000,10.812161865234375,-1.4078266620635986,0.5950352549552917,-1.0794382095336914
1751389817492208000,10.8222080078125,-1.456902027130127,0.4371393918991089,-1.0163103342056274
1751389817502254000,10.832254150390625,-1.43120276927948,0.34694957733154297,-0.9739688038825989
1751389817512299000,10.842299072265625,-1.3352677822113037,0.299793004989624,-0.9438457489013672
1751389817522345000,10.852344970703125,-1.2239571809768677,0.38666027784347534,-0.9097799062728882
1751389817532391200,10.86239111328125,-1.120901107788086,1.112239122390747,-0.8961788415908813
1751389817542436000,10.87243603515625,-1.0481995344161987,2.2158024311065674,-0.8353360295295715
1751389817552482000,10.88248193359375,-1.032430648803711,2.765010118484497,-0.6655471324920654
1751389817562528000,10.892528076171875,-1.0863244533538818,2.510938882827759,-0.4379991590976715
1751389817572573000,10.902572998046875,-1.2031733989715576,1.766000509262085,-0.17592333257198334
1751389817582619000,10.912618896484375,-1.3340498208999634,0.8801864981651306,0.12244898080825806
1751389817592664800,10.922664794921875,-1.3953200578689575,0.25877732038497925,0.43983882665634155
1751389817602710000,10.9327099609375,-1.3229515552520752,0.4339051842689514,0.8104523420333862
1751389817612756000,10.942755859375,-1.0557345151901245,1.0812138319015503,1.2070848941802979
1751389817622802000,10.952802001953126,-0.6338802576065063,1.3010647296905518,1.5339604616165161
1751389817632847000,10.96284716796875,-0.0949503481388092,1.0110703706741333,1.753848910331726
1751389817642893000,10.97289306640625,0.5117659568786621,0.6853436231613159,1.904477834701538
1751389817652939000,10.98293896484375,1.1216065883636475,0.7860510349273682,2.091151475906372
1751389817662984000,10.99298388671875,1.6276003122329712,1.653694748878479,2.2384204864501953
1751389817673030000,11.00302978515625,2.0579159259796143,2.332367420196533,2.0653326511383057
1751389817683075800,11.013075927734375,2.5826592445373535,2.197984218597412,1.7023968696594238
1751389817693121000,11.02312109375,3.2841908931732178,1.6970407962799072,1.257040023803711
1751389817703167000,11.0331669921875,3.9676849842071533,0.975131630897522,0.9387680292129517
1751389817713213000,11.043212890625,4.544900417327881,0.09357815980911255,0.8479453325271606
1751389817723259000,11.0532587890625,5.016629219055176,-0.7107449173927307,0.9199126958847046
1751389817733304000,11.063303955078124,5.385655403137207,-0.9957565069198608,1.0618757009506226
1751389817743350000,11.07335009765625,5.664809703826904,-0.5585088729858398,1.1973358392715454
1751389817753396000,11.08339599609375,5.786020755767822,0.2378823459148407,1.2285959720611572
1751389817763441200,11.093441162109375,5.701632499694824,0.8557277321815491,1.1721959114074707
1751389817773487000,11.103487060546875,5.391940116882324,1.1581636667251587,1.1239361763000488
1751389817783533000,11.113532958984376,4.872718334197998,1.3658396005630493,1.1537156105041504
1751389817793578000,11.123577880859376,4.208385467529297,1.6536829471588135,1.1006625890731812
1751389817803624000,11.1336240234375,3.466500759124756,1.6158676147460938,0.7756831049919128
1751389817813670000,11.143669921875,2.792313575744629,1.2972636222839355,0.31538957357406616
1751389817823715000,11.153715087890625,2.2523012161254883,0.7115287780761719,-0.23493880033493042
1751389817833761000,11.163760986328125,1.7898476123809814,-0.1196320503950119,-0.7791277766227722
1751389817843807000,11.173806884765625,1.3601807355880737,-1.0856441259384155,-1.1557599306106567
1751389817853852200,11.18385205078125,0.9696457386016846,-2.1618924140930176,-1.3441188335418701
1751389817863898000,11.193898193359376,0.680020809173584,-3.139946937561035,-1.4046885967254639
1751389817873944000,11.203944091796876,0.46920669078826904,-3.7557501792907715,-1.390743374824524
1751389817883989200,11.2139892578125,0.30184406042099,-4.057616710662842,-1.3542811870574951
1751389817894035500,11.224035400390624,0.15978342294692993,-4.161091327667236,-1.273665189743042
1751389817904081400,11.234081298828125,0.009252771735191345,-4.074843883514404,-1.1773918867111206
1751389817914126300,11.244126220703125,-0.1571388840675354,-3.8168649673461914,-1.0925031900405884
1751389817924172300,11.25417236328125,-0.32885846495628357,-3.523353338241577,-1.0145645141601562
1751389817934218500,11.264218505859375,-0.4938579201698303,-3.266874313354492,-0.937861442565918
1751389817944263400,11.274263427734375,-0.645338237285614,-3.052062511444092,-0.8611078262329102
1751389817954309400,11.284309326171876,-0.7956327199935913,-2.8176169395446777,-0.7738707661628723
1751389817964355600,11.29435546875,-0.9233185052871704,-2.5563342571258545,-0.6762344837188721
1751389817974400300,11.304400146484374,-1.0189486742019653,-2.336479425430298,-0.5880240201950073
1751389817984446200,11.3144462890625,-1.0637286901474,-2.156202793121338,-0.5099659562110901
1751389817994492400,11.324492431640625,-1.0677483081817627,-2.000722646713257,-0.4306384325027466
1751389818004538400,11.334538330078125,-1.0383483171463013,-1.875200867652893,-0.3703332841396332
1751389818014583300,11.344583251953125,-0.9563237428665161,-1.6897493600845337,-0.3877551555633545
1751389818024629200,11.354629150390625,-0.8394464254379272,-1.3734360933303833,-0.5286499261856079
1751389818034675500,11.364675537109376,-0.724506139755249,-0.7246740460395813,-0.9010573029518127
1751389818044720400,11.374720458984376,-0.6797155141830444,0.3424375653266907,-1.300197720527649
1751389818054766300,11.384766357421874,-0.5385814905166626,0.9893747568130493,-0.48263177275657654
1751389818064812500,11.3948125,-0.02567053586244583,2.236191749572754,0.3588387072086334
1751389818074857500,11.404857421875,0.5669995546340942,2.9881837368011475,0.6935749053955078
1751389818084903400,11.4149033203125,1.0379308462142944,3.0496363639831543,0.5838707685470581
1751389818094949400,11.424949462890625,1.0340752601623535,2.4202778339385986,0.20760463178157806
1751389818104994300,11.434994384765625,0.5177049040794373,1.7169450521469116,-0.10739832371473312
1751389818115040300,11.445040283203125,-0.23316816985607147,1.4085429906845093,-0.40959715843200684
1751389818125086200,11.455086181640626,-1.07989501953125,1.4721760749816895,-0.6964443325996399
1751389818135131400,11.46513134765625,-1.61711585521698,1.5976365804672241,-0.9020758867263794
1751389818145177300,11.47517724609375,-1.6213408708572388,1.6961452960968018,-1.0979381799697876
1751389818155223300,11.485223388671875,-1.331780195236206,1.537393569946289,-1.2203105688095093
1751389818165268500,11.4952685546875,-0.9782934188842773,0.8955181837081909,-1.0751293897628784
1751389818175314400,11.505314453125,-0.723418116569519,0.08260518312454224,-0.6936255693435669
1751389818185360400,11.5153603515625,-0.4615495502948761,-0.41286715865135193,-0.28843069076538086
1751389818195405600,11.525405517578125,0.0864073634147644,1.0650969743728638,0.4887312650680542
1751389818205451500,11.535451416015626,0.7203909158706665,2.2674968242645264,0.8585647344589233
1751389818215497500,11.54549755859375,1.119931697845459,1.9932045936584473,0.9202009439468384
1751389818225542400,11.55554248046875,1.2038193941116333,1.221775770187378,0.6062616109848022
1751389818235588400,11.56558837890625,1.0562291145324707,0.4504510164260864,0.1257629245519638
1751389818245634300,11.57563427734375,0.7895585298538208,-0.2250818908214569,-0.33071833848953247
1751389818255680300,11.58568017578125,0.37598296999931335,-0.7362666130065918,-0.5935711860656738
1751389818265725400,11.595725341796875,-0.15855315327644348,-1.1963800191879272,-0.735296368598938
1751389818275771400,11.605771484375,-0.7627984285354614,-1.5383105278015137,-0.8683957457542419
1751389818285817300,11.6158173828125,-1.3164135217666626,-1.6888900995254517,-0.9237066507339478
1751389818295862500,11.625862548828126,-1.7331957817077637,-1.750376582145691,-0.8691877126693726
1751389818305908500,11.635908447265624,-1.9757903814315796,-1.849273920059204,-0.7542132139205933
1751389818315954400,11.645954345703124,-2.0685133934020996,-1.9511960744857788,-0.6404780149459839
1751389818325999600,11.65599951171875,-2.030322551727295,-2.036743402481079,-0.5518232583999634
1751389818336045300,11.66604541015625,-1.8861855268478394,-2.090841293334961,-0.48301517963409424
1751389818346091300,11.67609130859375,-1.6855612993240356,-2.0989859104156494,-0.385335236787796
1751389818356136400,11.686136474609375,-1.4795442819595337,-2.0733773708343506,-0.2697756886482239
1751389818366182400,11.696182373046875,-1.2986419200897217,-1.9589941501617432,-0.13739049434661865
1751389818376228400,11.706228271484376,-1.1542713642120361,-1.7096234560012817,-0.054931215941905975
1751389818386273300,11.716273193359376,-1.050122857093811,-1.394070029258728,-0.03887501358985901
1751389818396319500,11.726319580078124,-0.9829413294792175,-1.0216106176376343,-0.07942058891057968
1751389818406365400,11.736365478515625,-0.9687261581420898,-0.34209495782852173,-0.29456406831741333
1751389818416410400,11.746410400390625,-1.0161411762237549,0.8202785849571228,-0.7522966861724854
1751389818426456600,11.75645654296875,-1.0592968463897705,1.8968558311462402,-1.1368128061294556
1751389818436502500,11.76650244140625,-1.065467357635498,2.466646432876587,-1.282272219657898
1751389818446547200,11.776547119140625,-1.052537441253662,2.582085609436035,-1.2510703802108765
1751389818456593200,11.78659326171875,-1.0608599185943604,2.5348331928253174,-1.176585078239441
1751389818466639400,11.796639404296876,-1.0929070711135864,2.4130327701568604,-1.0933613777160645
1751389818476684300,11.806684326171874,-1.1525381803512573,2.222960948944092,-1.0003440380096436
1751389818486730200,11.816730224609374,-1.218096137046814,1.9853019714355469,-0.9122511148452759
1751389818496776400,11.8267763671875,-1.2767871618270874,1.710557222366333,-0.8216682076454163
1751389818506822400,11.836822509765625,-1.306778073310852,1.4463412761688232,-0.7440658211708069
1751389818516867300,11.846867431640625,-1.3131991624832153,1.2429988384246826,-0.6615955829620361
1751389818526913300,11.856913330078125,-1.3190323114395142,1.1149548292160034,-0.5838075876235962
1751389818536959500,11.86695947265625,-1.3411794900894165,1.0328549146652222,-0.5036981701850891
1751389818547004400,11.87700439453125,-1.366753339767456,0.9813629388809204,-0.44652223587036133
1751389818557050400,11.88705029296875,-1.3740612268447876,0.9538298845291138,-0.4156111478805542
1751389818567096600,11.8970966796875,-1.3596644401550293,0.9329232573509216,-0.4380922019481659
1751389818577141200,11.907141357421875,-1.3010445833206177,0.9438121914863586,-0.49237003922462463
1751389818587187200,11.917187255859375,-1.1796444654464722,1.0047950744628906,-0.566113293170929
1751389818597233400,11.9272333984375,-1.0342649221420288,1.1418403387069702,-0.6724685430526733
1751389818607278300,11.9372783203125,-0.9010011553764343,1.615853190422058,-0.8490374684333801
1751389818617324300,11.94732421875,-0.7825572490692139,2.3998117446899414,-0.9911091327667236
1751389818627370200,11.957370361328126,-0.7083200216293335,2.9147696495056152,-0.9701814651489258
1751389818637415400,11.96741552734375,-0.7058423161506653,3.001237630844116,-0.8062140941619873
1751389818647461400,11.97746142578125,-0.7656950354576111,2.753160238265991,-0.5407036542892456
1751389818657507300,11.98750732421875,-0.8510922193527222,2.4196677207946777,-0.15452510118484497
1751389818667552500,11.997552490234375,-0.8912052512168884,2.33325457572937,0.39329537749290466
1751389818677598500,12.007598388671875,-0.7895376086235046,2.3273046016693115,1.0877755880355835
1751389818687644400,12.01764453125,-0.5123111009597778,1.8176827430725098,1.704994559288025
1751389818697689300,12.027689453125,-0.08728417009115219,0.7827492356300354,2.0330865383148193
1751389818707735300,12.0377353515625,0.4400600790977478,-0.2800896167755127,2.1587061882019043
1751389818717781200,12.04778125,0.9845064282417297,-0.10513624548912048,2.1616427898406982
1751389818727826400,12.057826416015626,1.389291763305664,1.3498696088790894,1.7938125133514404
1751389818737872400,12.067872314453124,1.7741336822509766,1.6570981740951538,1.4178500175476074
1751389818747918300,12.07791845703125,2.209468364715576,0.8170639276504517,1.1721111536026
1751389818757964300,12.08796435546875,2.7260637283325195,-0.48423099517822266,1.0213241577148438
1751389818768009500,12.098009521484375,3.218628168106079,-1.6941348314285278,0.9781487584114075
1751389818778055400,12.108055419921875,3.616117477416992,-2.651871681213379,1.0307940244674683
1751389818788101400,12.118101318359376,3.9286046028137207,-3.3467533588409424,1.109189510345459
1751389818798146600,12.128146484375,4.162599086761475,-3.6939241886138916,1.189562439918518
1751389818808192500,12.138192626953124,4.382481098175049,-3.2546467781066895,1.247620701789856
1751389818818238500,12.148238525390624,4.62192964553833,-1.9437649250030518,1.2500873804092407
1751389818828283400,12.158283447265624,4.750453472137451,-0.5116897225379944,1.2265303134918213
1751389818838329300,12.168329345703125,4.668597221374512,0.3743624687194824,1.1795734167099
1751389818848375300,12.178375244140625,4.415502071380615,0.8312362432479858,1.1654653549194336
1751389818858420500,12.18842041015625,4.011364459991455,1.0833121538162231,1.2056174278259277
1751389818868466400,12.198466552734375,3.5854780673980713,1.432936429977417,1.2448469400405884
1751389818878512400,12.208512451171876,3.150040626525879,1.7009155750274658,1.1166727542877197
1751389818888557800,12.218557861328126,2.71327543258667,1.91633939743042,0.7953115105628967
1751389818898604000,12.22860400390625,2.3022072315216064,1.984194040298462,0.27369219064712524
1751389818908650000,12.23864990234375,1.9572639465332031,1.7667800188064575,-0.3994300365447998
1751389818918695000,12.24869482421875,1.6214778423309326,1.2542446851730347,-1.0708338022232056
1751389818928740900,12.258740966796875,1.2937324047088623,0.02617701329290867,-1.4349733591079712
1751389818938787000,12.268787109375,1.0165427923202515,-1.8202934265136719,-1.4113410711288452
1751389818948831700,12.278831787109375,0.8110748529434204,-3.2958507537841797,-1.2831047773361206
1751389818958877700,12.288877685546876,0.6537770628929138,-4.169213771820068,-1.1795552968978882
1751389818968924000,12.298923828125,0.4880349636077881,-4.463638782501221,-1.0968204736709595
1751389818978968800,12.30896875,0.2887808084487915,-4.328094482421875,-1.0564978122711182
1751389818989014800,12.319014892578124,0.07125061005353928,-3.9167892932891846,-1.0338058471679688
1751389818999061000,12.32906103515625,-0.16150516271591187,-3.414491653442383,-1.0029982328414917
1751389819009106000,12.33910595703125,-0.36376556754112244,-2.9564390182495117,-0.933036208152771
1751389819019152000,12.34915185546875,-0.5323956608772278,-2.5680501461029053,-0.8030056953430176
1751389819029197800,12.35919775390625,-0.6770263910293579,-2.2466320991516113,-0.6340914964675903
1751389819039243000,12.369242919921875,-0.7774786353111267,-1.9933321475982666,-0.45111414790153503
1751389819049289000,12.3792890625,-0.7944647669792175,-1.7758796215057373,-0.2634158730506897
1751389819059335000,12.3893349609375,-0.743829071521759,-1.6125205755233765,-0.08891937881708145
1751389819069379800,12.3993798828125,-0.6447008848190308,-1.4776519536972046,0.06065919250249863
1751389819079425800,12.40942578125,-0.5341266393661499,-1.3591221570968628,0.19465766847133636
1751389819089471700,12.4194716796875,-0.4718848168849945,-1.2082719802856445,0.2622777223587036
1751389819099517700,12.429517578125,-0.44901683926582336,-1.0246444940567017,0.18795713782310486
1751389819109563000,12.43956298828125,-0.4321230947971344,-0.7160521149635315,-0.03204526752233505
1751389819119608800,12.44960888671875,-0.4315945506095886,-0.2019222378730774,-0.3677663505077362
1751389819129654800,12.45965478515625,-0.498970627784729,0.5083712935447693,-0.716448187828064
1751389819139700000,12.469699951171876,-0.668254554271698,1.2721577882766724,-0.86653071641922
1751389819149746000,12.479745849609374,-0.794827938079834,1.7619022130966187,-0.5368087291717529
1751389819159791900,12.4897919921875,-0.8023127317428589,1.9983080625534058,0.06701111793518066
1751389819169837000,12.499837158203125,-0.7933226823806763,2.14129900932312,0.6033554673194885
1751389819179883000,12.509883056640625,-0.9619414806365967,2.1417603492736816,0.8543542623519897
1751389819189928700,12.5199287109375,-1.3245264291763306,2.0658152103424072,0.7701325416564941
1751389819199974000,12.529973876953125,-1.755720615386963,1.7688790559768677,0.3891103267669678
1751389819210019800,12.540019775390626,-1.9783698320388794,1.2874118089675903,-0.17368565499782562
1751389819220065800,12.550065673828126,-1.8587313890457153,0.7810294032096863,-0.709315836429596
1751389819230111000,12.560111083984374,-1.4233652353286743,0.4678885042667389,-1.0960859060287476
1751389819240157000,12.570156982421874,-0.9477389454841614,0.4443480372428894,-1.2942396402359009
1751389819250203000,12.580202880859375,-0.583970308303833,0.3243129551410675,-1.3158138990402222
1751389819260248000,12.590248046875,-0.26285696029663086,-0.16739709675312042,-1.1424590349197388
