time,seconds_elapsed,z,y,x
1751389806688134000,0.0181337890625,0.021674668416380882,0.12673823535442352,-0.3264516294002533
1751389806698178800,0.0281787109375,-0.015509184449911118,0.014607971534132957,-0.2913263738155365
1751389806708224800,0.038224853515625,-0.062010906636714935,-0.058763448148965836,-0.23313391208648682
1751389806718270000,0.04827001953125,-0.09449347853660583,-0.057067811489105225,-0.14703232049942017
1751389806728316000,0.05831591796875,-0.10674908012151718,0.004253600724041462,-0.0712030753493309
1751389806738360800,0.06836083984375,-0.09137332439422607,0.10493546724319458,-0.01805862970650196
1751389806748406800,0.07840673828125,-0.08635406196117401,0.21536743640899658,0.003066896228119731
1751389806758452000,0.088451904296875,-0.08485709875822067,0.32079851627349854,-0.013096094131469727
1751389806768498000,0.098497802734375,-0.08198647946119308,0.37848418951034546,-0.037035781890153885
1751389806778543900,0.1085439453125,-0.0645638108253479,0.3204163610935211,-0.08937834948301315
1751389806788589000,0.118589111328125,-0.05818021669983864,0.15950949490070343,-0.18333600461483002
1751389806798634800,0.128634765625,-0.05325842648744583,0.01338557992130518,-0.2843611538410187
1751389806808680000,0.138679931640625,-0.03080318681895733,-0.1407661736011505,-0.30717140436172485
1751389806818726000,0.148725830078125,-0.03332280367612839,-0.21952863037586212,-0.23321513831615448
1751389806828770800,0.158770751953125,-0.05383953079581261,-0.22545629739761353,-0.09979397058486938
1751389806838816800,0.168816650390625,-0.05348905920982361,-0.17705653607845306,0.06179146096110344
1751389806848862000,0.178862060546875,-0.034394726157188416,-0.11558251827955246,0.2029283493757248
1751389806858908000,0.188907958984375,-0.003933222498744726,-0.05289996787905693,0.28363916277885437
1751389806868953000,0.198953125,0.03182903677225113,-0.065005362033844,0.3058243691921234
1751389806878998000,0.208998046875,0.03934101387858391,-0.13555249571800232,0.27606967091560364
1751389806889044000,0.2190439453125,0.000477504770969972,-0.12884186208248138,0.1853000819683075
1751389806899089200,0.229089111328125,-0.12002494186162949,0.0002545981842558831,0.05395910516381264
1751389806909135000,0.239135009765625,-0.22378169000148773,0.1593443900346756,-0.0520956926047802
1751389806919180000,0.249179931640625,-0.30325573682785034,0.24088504910469055,-0.10500391572713852
1751389806929226000,0.25922607421875,-0.2799443006515503,0.22204957902431488,-0.08309142291545868
1751389806939271000,0.26927099609375,-0.20068703591823578,0.11151054501533508,-0.01997929997742176
1751389806949316900,0.27931689453125,-0.5734989643096924,-0.024519458413124084,0.06203008070588112
1751389806959362000,0.289362060546875,-0.8937318325042725,-0.10702871531248093,0.08500490337610245
1751389806969408000,0.299407958984375,-1.1014751195907593,-0.13111567497253418,0.08760468661785126
1751389806979453200,0.309453125,-1.3473567962646484,-0.17413371801376343,0.07551845908164978
1751389806989499100,0.3194990234375,-1.6693814992904663,-0.17857986688613892,0.06107773631811142
1751389806999545000,0.329545166015625,-2.036949872970581,-0.19856688380241394,0.057668089866638184
1751389807009590000,0.339590087890625,-2.2246127128601074,-0.05722946673631668,-0.010468353517353535
1751389807019636000,0.349635986328125,-2.126934766769409,0.4322446286678314,-0.2264467179775238
1751389807029681000,0.359680908203125,-1.8617790937423706,0.916397213935852,-0.465973824262619
1751389807039726800,0.369726806640625,-1.4255763292312622,1.277529001235962,-0.5939626693725586
1751389807049772000,0.37977197265625,-0.8833302855491638,1.3975152969360352,-0.6007747650146484
1751389807059818000,0.38981787109375,-0.362866073846817,1.20063054561615,-0.5644122362136841
1751389807069863200,0.39986328125,0.10889292508363724,0.8437317609786987,-0.513689398765564
1751389807079909000,0.4099091796875,0.48231685161590576,0.4763984978199005,-0.4525725245475769
1751389807089953800,0.419953857421875,0.8221532702445984,0.23710016906261444,-0.34320876002311707
1751389807100000000,0.43,1.1778620481491089,0.12818273901939392,-0.23451769351959229
1751389807110045000,0.440044921875,1.374050259590149,0.0550408810377121,-0.16577617824077606
1751389807120091000,0.4500908203125,1.3497251272201538,0.08839643746614456,-0.13876667618751526
1751389807130136000,0.460135986328125,1.0051219463348389,0.11131640523672104,-0.21877574920654297
1751389807140182000,0.47018212890625,0.5756545066833496,0.25899213552474976,-0.41615381836891174
1751389807150228000,0.48022802734375,0.16575726866722107,0.5030772686004639,-0.656836748123169
1751389807160273200,0.490273193359375,-0.13877040147781372,0.6322296261787415,-0.8810328245162964
1751389807170319000,0.500319091796875,-0.3292870819568634,0.5634362101554871,-1.0201281309127808
1751389807180363800,0.51036376953125,-0.448974609375,0.3193279206752777,-1.0904078483581543
1751389807190410000,0.520409912109375,-0.5468588471412659,0.056773267686367035,-1.1103962659835815
1751389807200455000,0.530454833984375,-0.6193865537643433,-0.0512717105448246,-1.0710829496383667
1751389807210500900,0.5405009765625,-0.655264139175415,0.010484598577022552,-0.9748682379722595
1751389807220546000,0.550546142578125,-0.553499698638916,0.2303391993045807,-0.8252792358398438
1751389807230592000,0.560592041015625,-0.24573040008544922,0.5207505226135254,-0.6559685468673706
1751389807240637200,0.57063720703125,0.21733178198337555,0.6814110279083252,-0.5498974919319153
1751389807250683100,0.58068310546875,0.7209019660949707,0.7000981569290161,-0.5269879102706909
1751389807260729000,0.59072900390625,1.220947504043579,0.6283454298973083,-0.5407396554946899
1751389807270774000,0.60077392578125,1.6969547271728516,0.5031688809394836,-0.5661193132400513
1751389807280820000,0.610820068359375,2.1086015701293945,0.3655950129032135,-0.5813587307929993
1751389807290865000,0.620864990234375,2.4386329650878906,0.23994308710098267,-0.5708048939704895
1751389807300910800,0.630910888671875,2.672940254211426,0.1477670967578888,-0.5293200612068176
1751389807310956000,0.6409560546875,2.7963955402374268,0.0855652317404747,-0.45487484335899353
1751389807321002000,0.651001953125,2.7517545223236084,0.05325869470834732,-0.3333912789821625
1751389807331047200,0.661047119140625,2.563767910003662,0.06843498349189758,-0.18063822388648987
1751389807341093000,0.671093017578125,2.2414462566375732,0.11571647971868515,0.0013499563792720437
1751389807351138000,0.681137939453125,1.844771146774292,0.20130328834056854,0.23044918477535248
1751389807361184000,0.69118408203125,1.4225519895553589,0.31288254261016846,0.49256840348243713
1751389807371229000,0.70122900390625,1.018462061882019,0.39432573318481445,0.7394905686378479
1751389807381275000,0.71127490234375,0.6745347380638123,0.44790002703666687,0.95152348279953
1751389807391320800,0.72132080078125,0.4261337220668793,0.4959069490432739,1.105448842048645
1751389807401366000,0.731365966796875,0.2822639048099518,0.7728948593139648,1.1854108572006226
1751389807411412000,0.741411865234375,0.22534683346748352,1.5436760187149048,1.1265381574630737
1751389807421457200,0.75145703125,0.21191172301769257,2.5485739707946777,0.9185018539428711
1751389807431503000,0.761503173828125,0.21415597200393677,3.141244649887085,0.6692941784858704
1751389807441548000,0.771548095703125,0.1874268800020218,3.1348161697387695,0.4465218186378479
1751389807451594200,0.78159423828125,0.1243821382522583,2.7807037830352783,0.284860759973526
1751389807461639000,0.791638916015625,0.1009971871972084,2.3292438983917236,0.1872391253709793
1751389807471684900,0.801684814453125,0.11437743902206421,1.858754277229309,0.12533581256866455
1751389807481730000,0.81172998046875,0.13468803465366364,1.4384204149246216,0.0738672986626625
1751389807491776000,0.82177587890625,0.1421201229095459,1.1307361125946045,-0.005371595732867718
1751389807501821000,0.831821044921875,0.13381771743297577,0.9862063527107239,-0.14997272193431854
1751389807511867100,0.8418671875,0.11305119097232819,0.9531927704811096,-0.3419320285320282
1751389807521913000,0.8519130859375,0.05666381120681763,0.9077451229095459,-0.5228594541549683
1751389807531958000,0.8619580078125,-0.03175819665193558,0.7357491254806519,-0.6469830274581909
1751389807542004200,0.872004150390625,-0.11894103139638901,0.44313377141952515,-0.6963785290718079
1751389807552049000,0.882048828125,-0.1870332658290863,0.09775345772504807,-0.6720894575119019
1751389807562094800,0.8920947265625,-0.21863700449466705,-0.23717260360717773,-0.5956000089645386
1751389807572140000,0.90214013671875,-0.21633629500865936,-0.5232062339782715,-0.4908458888530731
1751389807582186000,0.91218603515625,-0.1910911351442337,-0.7215297222137451,-0.379226952791214
1751389807592231000,0.92223095703125,-0.15892893075942993,-0.8000154495239258,-0.26896676421165466
1751389807602277000,0.932277099609375,-0.13233087956905365,-0.7849227786064148,-0.17641684412956238
1751389807612322000,0.942322021484375,-0.13607314229011536,-0.6959609389305115,-0.10590273141860962
1751389807622368000,0.952367919921875,-0.1755332052707672,-0.575179398059845,-0.05091564357280731
1751389807632414200,0.962414306640625,-0.2605394423007965,-0.4885699450969696,0.013918745331466198
1751389807642459000,0.972458984375,-0.37810495495796204,-0.4884208142757416,0.09589590132236481
1751389807652504800,0.9825048828125,-0.47797003388404846,-0.5786042213439941,0.18457117676734924
1751389807662550000,0.992550048828125,-0.5342077612876892,-0.716166615486145,0.26166436076164246
1751389807672596000,1.002595947265625,-0.5465658903121948,-0.8378912210464478,0.29659199714660645
1751389807682641200,1.01264111328125,-0.5051236152648926,-0.8402837514877319,0.25435319542884827
1751389807692687000,1.02268701171875,-0.42007479071617126,-0.5826780796051025,0.10468646138906479
1751389807702732000,1.03273193359375,-0.3151739239692688,-0.0543319471180439,-0.15394055843353271
1751389807712778000,1.042778076171875,-0.20622719824314117,0.5588105320930481,-0.4442459046840668
1751389807722823000,1.052822998046875,-0.08004876226186752,1.059053659439087,-0.685167133808136
1751389807732868900,1.062868896484375,0.06435928493738174,1.4381070137023926,-0.8454596400260925
1751389807742914800,1.072914794921875,0.21639488637447357,1.8236371278762817,-0.9441622495651245
1751389807752960000,1.0829599609375,0.32977283000946045,2.46901798248291,-0.9897430539131165
1751389807763006000,1.093005859375,0.4062596261501312,3.5004723072052,-0.9428974986076355
1751389807773051100,1.103051025390625,0.5385153889656067,4.448850154876709,-0.4757702648639679
1751389807783097000,1.11309716796875,1.1848350763320923,2.6265134811401367,1.729709506034851
1751389807793142000,1.12314208984375,1.8981424570083618,0.25826671719551086,3.5145938396453857
1751389807803188000,1.13318798828125,2.16532564163208,-0.5666413307189941,4.013354778289795
1751389807813233000,1.14323291015625,2.204329490661621,-0.6171750426292419,3.9148366451263428
1751389807823278800,1.15327880859375,2.1283249855041504,-0.37751054763793945,3.4816012382507324
1751389807833324000,1.163323974609375,1.984936237335205,0.022300511598587036,2.827681541442871
1751389807843370000,1.173369873046875,1.8632550239562988,0.35289546847343445,2.0682599544525146
1751389807853416000,1.183416015625,1.7901675701141357,0.401602566242218,1.349179983139038
1751389807863461000,1.193461181640625,1.7456163167953491,0.3339686393737793,0.7529163956642151
1751389807873507600,1.203507568359375,1.7114431858062744,0.36222851276397705,0.3223609924316406
1751389807883552500,1.213552490234375,1.6879868507385254,0.5329179763793945,0.05578124150633812
1751389807893598500,1.223598388671875,1.6703530550003052,0.7757700085639954,-0.008506136015057564
1751389807903643600,1.2336435546875,1.6997462511062622,0.7496718764305115,0.2751218378543854
1751389807913689600,1.243689697265625,1.7928855419158936,0.14061729609966278,0.8945456743240356
1751389807923734500,1.253734619140625,1.8849239349365234,-0.6730409860610962,1.4234262704849243
1751389807933780500,1.263780517578125,1.9135994911193848,-1.2099419832229614,1.6056320667266846
1751389807943825400,1.273825439453125,1.8665715456008911,-1.3054330348968506,1.440199375152588
1751389807953871600,1.28387158203125,1.771927833557129,-1.0259617567062378,1.0414222478866577
1751389807963917600,1.29391748046875,1.6496412754058838,-0.622706949710846,0.5667728781700134
1751389807973962500,1.30396240234375,1.5433743000030518,-0.3053375482559204,0.18474933505058289
1751389807984008400,1.314008544921875,1.44907546043396,-0.20308440923690796,-0.019577961415052414
1751389807994053600,1.3240537109375,1.3823877573013306,-0.2908640503883362,0.002891660202294588
1751389808004099600,1.334099609375,1.3386768102645874,-0.4968843460083008,0.1777995526790619
1751389808014144500,1.34414453125,1.2976195812225342,-0.6803074479103088,0.3856382369995117
1751389808024190500,1.3541904296875,1.2390223741531372,-0.7693898677825928,0.5219302773475647
1751389808034235400,1.3642353515625,1.1508948802947998,-0.7459335923194885,0.5375710725784302
1751389808044281600,1.374281494140625,1.0359363555908203,-0.6992683410644531,0.42739981412887573
1751389808054326500,1.384326416015625,0.8982096314430237,-0.7429191470146179,0.20546208322048187
1751389808064372500,1.39437255859375,0.7433518767356873,-0.870313823223114,-0.03835005313158035
1751389808074418400,1.40441845703125,0.5698149800300598,-1.0533699989318848,-0.23386362195014954
1751389808084463600,1.414463623046875,0.3775065541267395,-1.1922024488449097,-0.3303121328353882
1751389808094509600,1.424509521484375,0.1878412663936615,-1.206526756286621,-0.3271158039569855
1751389808104554500,1.434554443359375,0.011811119504272938,-1.1115717887878418,-0.26475363969802856
1751389808114600400,1.444600341796875,-0.15043771266937256,-0.9629167318344116,-0.17813484370708466
1751389808124645400,1.454645263671875,-0.3025715947151184,-0.7972425818443298,-0.10652431100606918
1751389808134691600,1.464691650390625,-0.4527762532234192,-0.6390523910522461,-0.04717949777841568
1751389808144736500,1.474736572265625,-0.6145992279052734,-0.5279474258422852,0.0002561961009632796
1751389808154782500,1.484782470703125,-0.783636748790741,-0.4979322850704193,0.0294329896569252
1751389808164828400,1.494828369140625,-0.9600335955619812,-0.49769872426986694,0.03158162906765938
1751389808174873600,1.50487353515625,-1.1215375661849976,-0.5050187110900879,0.011928564868867397
1751389808184919600,1.51491943359375,-1.2855513095855713,-0.41846171021461487,0.014135260134935379
1751389808194964500,1.524964599609375,-1.4305435419082642,-0.1585686057806015,0.07463669031858444
1751389808205010400,1.535010498046875,-1.5346266031265259,0.347696989774704,0.16250848770141602
1751389808215055400,1.545055419921875,-1.5749154090881348,1.009502649307251,0.2580224871635437
1751389808225101600,1.5551015625,-1.5226818323135376,1.5765939950942993,0.37935611605644226
1751389808235146500,1.565146484375,-1.3747751712799072,1.9547549486160278,0.5387159585952759
1751389808245192400,1.5751923828125,-1.127935528755188,2.077906608581543,0.701141357421875
1751389808255238700,1.58523876953125,-0.807166576385498,1.987097978591919,0.7280699014663696
1751389808265283600,1.59528369140625,-0.48870524764060974,1.6735503673553467,0.5129069685935974
1751389808275329500,1.60532958984375,-0.20579764246940613,1.0868602991104126,0.08520464599132538
1751389808285374500,1.61537451171875,0.06935883313417435,0.2938358783721924,-0.3934119939804077
1751389808295420400,1.62542041015625,0.3606143891811371,-0.5217872858047485,-0.8042306900024414
1751389808305465300,1.63546533203125,0.536173939704895,-1.0517842769622803,-1.0422149896621704
1751389808315511600,1.645511474609375,0.6044099926948547,-1.2556045055389404,-1.083380103111267
1751389808325556500,1.655556396484375,0.6102625727653503,-1.2840063571929932,-0.9803394079208374
1751389808335602400,1.6656025390625,0.5959776043891907,-1.2344387769699097,-0.8736156225204468
1751389808345648600,1.675648681640625,0.536624550819397,-1.09923255443573,-0.8470370173454285
1751389808355693600,1.685693603515625,0.3508530855178833,-1.0544794797897339,-0.7662758827209473
1751389808365739500,1.695739501953125,0.0794530138373375,-1.2222188711166382,-0.5959270596504211
1751389808375784400,1.705784423828125,-0.19338303804397583,-1.4363932609558105,-0.41485658288002014
1751389808385830400,1.715830322265625,-0.4270075261592865,-1.4848041534423828,-0.2572246193885803
1751389808395875300,1.725875244140625,-0.6576114296913147,-0.8228166103363037,-0.09970102459192276
1751389808405921500,1.735921630859375,-0.8747866153717041,0.7869347929954529,-0.04361272603273392
1751389808415966500,1.745966552734375,-1.0620059967041016,1.9678864479064941,-0.09346230328083038
1751389808426012400,1.756012451171875,-1.2186521291732788,2.2501909732818604,-0.22529810667037964
1751389808436058600,1.76605859375,-1.3451451063156128,1.9174351692199707,-0.3794865906238556
1751389808446103600,1.776103515625,-1.376816987991333,1.4644919633865356,-0.50187748670578
1751389808456149500,1.7861494140625,-1.3136223554611206,1.1001214981079102,-0.5363409519195557
1751389808466194400,1.7961943359375,-1.1704508066177368,0.6967223286628723,-0.5172716379165649
1751389808476240400,1.806240478515625,-1.001442551612854,0.2126329094171524,-0.475088506937027
1751389808486285600,1.81628564453125,-0.8565146923065186,-0.2557731866836548,-0.4023873805999756
1751389808496331500,1.82633154296875,-0.7628440856933594,-0.6497598886489868,-0.29602712392807007
1751389808506376400,1.83637646484375,-0.7169288396835327,-0.9820283651351929,-0.1916983276605606
1751389808516422400,1.84642236328125,-0.7262309789657593,-1.2433654069900513,-0.1179809644818306
1751389808526468600,1.856468505859375,-0.7809677124023438,-1.3920425176620483,-0.09771031141281128
1751389808536513500,1.866513427734375,-0.8901306986808777,-1.0508918762207031,-0.25606799125671387
1751389808546559500,1.8765595703125,-1.1006964445114136,0.010919492691755295,-0.6632629036903381
1751389808556604700,1.886604736328125,-1.3073148727416992,1.0038477182388306,-1.035284161567688
1751389808566650400,1.896650390625,-1.4514172077178955,1.4640851020812988,-1.209892988204956
1751389808576695600,1.906695556640625,-1.5250056982040405,1.4278076887130737,-1.2159452438354492
1751389808586741500,1.916741455078125,-1.5559638738632202,1.0887417793273926,-1.1443967819213867
1751389808596787500,1.926787353515625,-1.5522575378417969,0.6112809777259827,-1.0565085411071777
1751389808606832400,1.936832275390625,-1.5375081300735474,0.1568295657634735,-0.9756655693054199
1751389808616878600,1.946878662109375,-1.5228551626205444,-0.1016046553850174,-0.9413883090019226
1751389808626923500,1.956923583984375,-1.4947748184204102,-0.09433422237634659,-0.9636731147766113
1751389808636969500,1.966969482421875,-1.4329010248184204,0.0564291886985302,-1.0161688327789307
1751389808647014700,1.9770146484375,-1.3387346267700195,0.16770537197589874,-1.0654362440109253
1751389808657060600,1.987060546875,-1.2134884595870972,0.1312618851661682,-1.0840256214141846
1751389808667105500,1.99710546875,-1.0700246095657349,-0.059538695961236954,-1.08192777633667
1751389808677151500,2.0071513671875,-0.9295073747634888,-0.34292593598365784,-1.0647398233413696
1751389808687197400,2.017197509765625,-0.7802335023880005,-0.6012222170829773,-1.0404618978500366
1751389808697242600,2.02724267578125,-0.6422905325889587,-0.7894810438156128,-1.0139822959899902
1751389808707288600,2.03728857421875,-0.5378376245498657,-0.8798282742500305,-0.9909374713897705
1751389808717333500,2.04733349609375,-0.48491209745407104,-0.8243016004562378,-0.9708215594291687
1751389808727379500,2.05737939453125,-0.4784611165523529,-0.5431104302406311,-0.9298650622367859
1751389808737424600,2.067424560546875,-0.4975259006023407,0.11332682520151138,-0.817035436630249
1751389808747470600,2.077470703125,-0.5530791878700256,0.9037266373634338,-0.6998723149299622
1751389808757515500,2.087515625,-0.633825957775116,1.3968021869659424,-0.6604985594749451
1751389808767561500,2.0975615234375,-0.6867645382881165,1.593863844871521,-0.6364150643348694
1751389808777607400,2.107607421875,-0.6878393888473511,1.5509788990020752,-0.601769208908081
1751389808787652600,2.117652587890625,-0.6638738512992859,1.345350980758667,-0.5569322109222412
1751389808797698600,2.127698486328125,-0.599465012550354,1.098205327987671,-0.48117220401763916
1751389808807743500,2.137743408203125,-0.5013744235038757,0.8946098685264587,-0.36928030848503113
1751389808817789400,2.14778955078125,-0.3961063325405121,0.7665917277336121,-0.24120835959911346
1751389808827834600,2.157834716796875,-0.2959429621696472,0.7614232897758484,-0.1336105316877365
1751389808837880600,2.167880615234375,-0.23088940978050232,0.844822883605957,-0.08179126679897308
1751389808847926500,2.177926513671875,-0.23520000278949738,0.8129871487617493,-0.05634103715419769
1751389808857971500,2.187971435546875,-0.3047465980052948,0.5365574359893799,-0.0019036275334656239
1751389808868017400,2.198017333984375,-0.4322664737701416,0.09805040061473846,0.09163431078195572
1751389808878061600,2.2080615234375,-0.5916558504104614,-0.39863234758377075,0.20572999119758606
1751389808888107500,2.218107421875,-0.7402072548866272,-0.8829918503761292,0.3108859658241272
1751389808898152700,2.228152587890625,-0.8554997444152832,-1.2676029205322266,0.37434643507003784
1751389808908198700,2.23819873046875,-0.9045946002006531,-1.3721580505371094,0.3654927611351013
1751389808918244600,2.24824462890625,-0.8557817935943604,-1.1128356456756592,0.2984279692173004
1751389808928289500,2.25828955078125,-0.6788812875747681,-0.6597188115119934,0.21306273341178894
1751389808938335700,2.268335693359375,-0.37660133838653564,-0.13782711327075958,0.14125806093215942
1751389808948380700,2.278380615234375,0.016285495832562447,0.5067428350448608,0.11689679324626923
1751389808958426600,2.288426513671875,0.47544801235198975,1.2591984272003174,0.19956371188163757
1751389808968471600,2.298471435546875,0.9814968109130859,2.0289227962493896,0.40035513043403625
1751389808978517500,2.308517578125,1.5545270442962646,2.571101427078247,0.7056066393852234
1751389808988563500,2.3185634765625,2.144111156463623,2.744729518890381,1.0968801975250244
1751389808998608600,2.328608642578125,2.7251431941986084,2.546618700027466,1.5981709957122803
1751389809008654600,2.338654541015625,3.2354211807250977,1.9283214807510376,2.2017455101013184
1751389809018699500,2.348699462890625,3.601069450378418,1.1148370504379272,2.7491040229797363
1751389809028745700,2.358745849609375,3.8076822757720947,0.4414450526237488,3.1318438053131104
1751389809038790700,2.368790771484375,3.926560640335083,0.19595272839069366,3.3281781673431396
1751389809048836600,2.378836669921875,4.018932342529297,0.45956599712371826,3.248878002166748
1751389809058882800,2.3888828125,4.081543445587158,1.0962010622024536,2.6656224727630615
1751389809068927500,2.398927490234375,3.9841794967651367,1.229021668434143,1.6409293413162231
1751389809078973400,2.408973388671875,3.655735492706299,0.467429518699646,0.7690823078155518
1751389809089018600,2.4190185546875,3.167769193649292,-0.8401175737380981,0.18111546337604523
1751389809099064600,2.429064697265625,2.6690046787261963,-2.098383665084839,-0.12611664831638336
1751389809109109800,2.43910986328125,2.303088426589966,-2.9782772064208984,-0.22553032636642456
1751389809119155700,2.44915576171875,2.069981336593628,-3.4022953510284424,-0.23796968162059784
1751389809129201700,2.45920166015625,1.862715482711792,-3.344740152359009,-0.19903160631656647
1751389809139246600,2.46924658203125,1.6911903619766235,-2.915273427963257,-0.1633409857749939
1751389809149292800,2.479292724609375,1.582743525505066,-2.3165359497070312,-0.1735835075378418
1751389809159337500,2.48933740234375,1.5144619941711426,-1.8866355419158936,-0.24821992218494415
1751389809169383400,2.499383544921875,1.4420729875564575,-1.4839866161346436,-0.26973748207092285
1751389809179428600,2.5094287109375,1.3704198598861694,-1.0310652256011963,-0.23018953204154968
1751389809189474600,2.519474609375,1.2770781517028809,-0.7283170223236084,-0.15643221139907837
1751389809199520500,2.5295205078125,1.1635103225708008,-0.5386008620262146,-0.07608065009117126
1751389809209565700,2.539565673828125,1.0445284843444824,-0.4331439733505249,-0.047800544649362564
1751389809219611600,2.549611572265625,0.9134733080863953,-0.45369771122932434,-0.0817800834774971
1751389809229656600,2.559656494140625,0.7690572738647461,-0.5902909636497498,-0.17709940671920776
1751389809239702800,2.569702880859375,0.6151105761528015,-0.7963094115257263,-0.3174157738685608
1751389809249747700,2.579747802734375,0.432762086391449,-1.0477629899978638,-0.4538319408893585
1751389809259793400,2.58979345703125,0.22111400961875916,-1.317339539527893,-0.5713625550270081
1751389809269839600,2.599839599609375,-0.0037955371662974358,-1.5534418821334839,-0.6498571038246155
1751389809279884500,2.609884521484375,-0.24529871344566345,-1.6955054998397827,-0.667450487613678
1751389809289930500,2.619930419921875,-0.48952922224998474,-1.7872079610824585,-0.6302404999732971
1751389809299975700,2.6299755859375,-0.7325857877731323,-1.869795799255371,-0.5402238368988037
1751389809310021600,2.640021728515625,-0.967748761177063,-1.9287699460983276,-0.41670721769332886
1751389809320066800,2.65006689453125,-1.1626362800598145,-1.9853564500808716,-0.3209069073200226
1751389809330112800,2.66011279296875,-1.3300942182540894,-2.016634464263916,-0.26550570130348206
1751389809340158700,2.67015869140625,-1.47394597530365,-1.929570198059082,-0.2636886239051819
1751389809350203600,2.68020361328125,-1.6258302927017212,-1.3992724418640137,-0.2393212467432022
1751389809360249600,2.69024951171875,-1.699221134185791,-0.38891899585723877,0.19451755285263062
1751389809370294500,2.70029443359375,-1.3564014434814453,1.2268290519714355,0.7248013615608215
1751389809380340500,2.710340576171875,-0.8185486793518066,2.5742805004119873,0.5457091331481934
1751389809390385700,2.7203857421875,-0.2726301848888397,2.6868019104003906,0.17136189341545105
1751389809400431600,2.730431640625,-0.13863830268383026,2.1612448692321777,-0.16514980792999268
1751389809410477600,2.7404775390625,-0.3998448848724365,1.7802754640579224,-0.2607002854347229
1751389809420522800,2.750522705078125,-0.7883864641189575,1.6490330696105957,-0.2596174478530884
1751389809430568700,2.760568603515625,-1.0459160804748535,1.8293277025222778,-0.3402755558490753
1751389809440613600,2.770613525390625,-0.9739750027656555,1.8710917234420776,-0.4883619546890259
1751389809450659800,2.780659912109375,-0.6645516157150269,1.7949583530426025,-0.6522635221481323
1751389809460705500,2.79070556640625,-0.3170165717601776,1.7861957550048828,-0.660279393196106
1751389809470750500,2.80075048828125,-0.1947348713874817,1.8107396364212036,-0.3855583369731903
1751389809480796700,2.810796630859375,-0.25128257274627686,1.9131413698196411,0.17325647175312042
1751389809490841600,2.820841552734375,-0.1311873197555542,1.9398566484451294,0.4902397394180298
1751389809500887600,2.830887451171875,0.2655123770236969,1.5342015027999878,0.414603054523468
1751389809510932700,2.8409326171875,0.6033804416656494,0.6463534235954285,0.2801797389984131
1751389809520978700,2.850978759765625,0.7323448061943054,-0.3012237548828125,0.20318560302257538
1751389809531024600,2.861024658203125,0.6375948190689087,-0.6251323223114014,0.030643928796052933
1751389809541069800,2.87106982421875,0.3760988116264343,-0.4475058615207672,-0.14532524347305298
1751389809551115800,2.88111572265625,0.01727246306836605,-0.36878201365470886,-0.2519771158695221
1751389809561160400,2.891160400390625,-0.36313319206237793,-0.5590994954109192,-0.444680780172348
1751389809571206700,2.90120654296875,-0.7738181948661804,-0.9093430042266846,-0.6999413371086121
1751389809581252600,2.911252685546875,-1.1647870540618896,-1.145127534866333,-0.8993415236473083
1751389809591297500,2.921297607421875,-1.456992506980896,-1.2557268142700195,-0.9666702151298523
1751389809601343700,2.93134375,-1.622341275215149,-1.302905797958374,-0.9255968332290649
1751389809611388700,2.941388671875,-1.6629233360290527,-1.356188178062439,-0.8145842552185059
1751389809621434600,2.9514345703125,-1.6085871458053589,-1.458572268486023,-0.6761241555213928
1751389809631479800,2.961479736328125,-1.5064809322357178,-1.6107977628707886,-0.5217435956001282
1751389809641525800,2.97152587890625,-1.3766098022460938,-1.7870020866394043,-0.3583373725414276
1751389809651571700,2.98157177734375,-1.2460209131240845,-1.9333635568618774,-0.21404863893985748
1751389809661616600,2.99161669921875,-1.1476445198059082,-1.9714915752410889,-0.09655822813510895
1751389809671662600,3.00166259765625,-1.099846601486206,-1.8878061771392822,-0.03182823583483696
1751389809681707500,3.01170751953125,-1.0852546691894531,-1.7359261512756348,-0.060142964124679565
1751389809691753700,3.021753662109375,-1.062774896621704,-1.4460599422454834,-0.2003951519727707
1751389809701798700,3.031798583984375,-1.0827991962432861,-0.7259483933448792,-0.5764071345329285
1751389809711844600,3.0418447265625,-1.1239511966705322,0.1885014772415161,-1.041344404220581
1751389809721890600,3.051890625,-1.1457926034927368,0.8801329135894775,-1.3841087818145752
1751389809731935700,3.061935791015625,-1.1591501235961914,1.212502121925354,-1.5301716327667236
1751389809741981700,3.071981689453125,-1.1777236461639404,1.2906235456466675,-1.5528281927108765
1751389809752026600,3.082026611328125,-1.2030845880508423,1.2628592252731323,-1.5189802646636963
1751389809762072600,3.092072509765625,-1.2353235483169556,1.186344027519226,-1.4695125818252563
1751389809772118500,3.102118408203125,-1.2679738998413086,1.067123293876648,-1.413930058479309
1751389809782163700,3.112163818359375,-1.2768275737762451,0.9247339367866516,-1.3525041341781616
1751389809792209700,3.122209716796875,-1.239776849746704,0.7684942483901978,-1.2879081964492798
1751389809802254600,3.132254638671875,-1.1548837423324585,0.6078516244888306,-1.2306246757507324
1751389809812300800,3.14230078125,-1.0505653619766235,0.45297732949256897,-1.1832773685455322
1751389809822345700,3.152345703125,-0.9497607350349426,0.3465515673160553,-1.132694125175476
1751389809832391700,3.1623916015625,-0.8828887343406677,0.31373369693756104,-1.0769962072372437
1751389809842437600,3.172437744140625,-0.8547689914703369,0.2992516756057739,-1.0465583801269531
1751389809852482600,3.182482666015625,-0.8265104293823242,0.376616507768631,-1.02168869972229
1751389809862528500,3.192528564453125,-0.7739689350128174,0.6633790135383606,-0.9529892802238464
1751389809872573700,3.20257373046875,-0.691136360168457,1.1143989562988281,-0.872171938419342
1751389809882620400,3.212620361328125,-0.6012070178985596,1.7190529108047485,-0.9195005893707275
1751389809892666400,3.222666259765625,-0.5232560038566589,2.5415432453155518,-1.0596257448196411
1751389809902711300,3.232711181640625,-0.527349054813385,3.168971538543701,-1.1752852201461792
1751389809912757500,3.242757568359375,-0.6098471283912659,3.3131349086761475,-1.1618287563323975
1751389809922802200,3.25280224609375,-0.6969207525253296,3.033310890197754,-1.0387201309204102
1751389809932848000,3.26284814453125,-0.736794114112854,2.502228021621704,-0.8357002139091492
1751389809942893300,3.272893310546875,-0.7012670636177063,1.9191702604293823,-0.5796607136726379
1751389809952939300,3.282939208984375,-0.6101602911949158,1.4225738048553467,-0.2731876075267792
1751389809962985200,3.292985107421875,-0.5015997290611267,0.9940288662910461,0.12995480000972748
1751389809973030400,3.303030517578125,-0.4108189642429352,0.573302686214447,0.6052933931350708
1751389809983076400,3.313076416015625,-0.3571131229400635,0.26474377512931824,1.0337059497833252
1751389809993121300,3.323121337890625,-0.334992378950119,0.1628704071044922,1.3449996709823608
1751389810003167500,3.33316748046875,-0.3100651800632477,0.2304723560810089,1.545371651649475
1751389810013213400,3.34321337890625,-0.22063863277435303,0.17791327834129333,1.65530264377594
1751389810023258000,3.353258056640625,-0.07826497405767441,-0.21995100378990173,1.6945829391479492
1751389810033304300,3.36330419921875,0.08630852401256561,-0.8842089176177979,1.6800849437713623
1751389810043349200,3.373349365234375,0.27052363753318787,-1.5690882205963135,1.617038369178772
1751389810053395200,3.383395263671875,0.46664759516716003,-1.885202169418335,1.5505541563034058
1751389810063441200,3.393441162109375,0.6829580664634705,-1.4677798748016357,1.5094491243362427
1751389810073486300,3.403486328125,0.9475010633468628,-0.5049598217010498,1.5468904972076416
1751389810083532300,3.4135322265625,1.3200889825820923,0.24788276851177216,1.5904933214187622
1751389810093577500,3.423577392578125,1.8285202980041504,0.4135148823261261,1.545615553855896
1751389810103623400,3.43362353515625,2.4019062519073486,0.1382548063993454,1.4468528032302856
1751389810113669400,3.44366943359375,2.961785316467285,-0.2404690682888031,1.3496508598327637
1751389810123714300,3.45371435546875,3.4286601543426514,-0.4742163121700287,1.2709009647369385
1751389810133760300,3.46376025390625,3.788416624069214,-0.4315388798713684,1.2162715196609497
1751389810143805200,3.47380517578125,4.058887004852295,0.002951581496745348,1.1634423732757568
1751389810153851400,3.483851318359375,4.224061489105225,0.7404351830482483,1.0666120052337646
1751389810163896300,3.493896240234375,4.29657506942749,1.5152629613876343,0.9492778778076172
1751389810173942300,3.5039423828125,4.275410175323486,2.01529598236084,0.8273853063583374
1751389810183988200,3.51398828125,4.136910915374756,2.3341472148895264,0.7726594805717468
1751389810194033400,3.524033447265625,3.842836856842041,2.4396018981933594,0.8322508931159973
1751389810204079400,3.534079345703125,3.42356538772583,1.9644211530685425,0.9897786974906921
1751389810214124300,3.544124267578125,2.955073833465576,0.9719768166542053,1.0329294204711914
1751389810224170200,3.554170166015625,2.531985282897949,-0.04613953083753586,0.8096198439598083
1751389810234216200,3.56421630859375,2.1552906036376953,-0.8354871273040771,0.3150564730167389
1751389810244261400,3.574261474609375,1.8201097249984741,-1.434493064880371,-0.2568744122982025
1751389810254307300,3.584307373046875,1.496961236000061,-1.8863742351531982,-0.7451412677764893
1751389810264352300,3.594352294921875,1.2019269466400146,-2.2947909832000732,-1.1229867935180664
1751389810274398200,3.604398193359375,0.9493599534034729,-2.7370684146881104,-1.3435934782028198
1751389810284443400,3.614443359375,0.7332444190979004,-3.0446176528930664,-1.3835039138793945
1751389810294489300,3.6244892578125,0.5263498425483704,-3.117371082305908,-1.2794203758239746
1751389810304535300,3.634535400390625,0.33334681391716003,-2.9803543090820312,-1.1062451601028442
1751389810314580200,3.644580322265625,0.14336062967777252,-2.811493396759033,-0.9133667945861816
1751389810324626200,3.654626220703125,0.005196892656385899,-2.6577978134155273,-0.7298762798309326
1751389810334671400,3.66467138671875,-0.09146759659051895,-2.4992806911468506,-0.5755213499069214
1751389810344717300,3.67471728515625,-0.14758865535259247,-2.337228775024414,-0.47862571477890015
1751389810354763300,3.68476318359375,-0.1673210859298706,-2.1725192070007324,-0.41411808133125305
1751389810364808400,3.694808349609375,-0.16482171416282654,-2.000737190246582,-0.35060861706733704
1751389810374854400,3.7048544921875,-0.1591757982969284,-1.8602750301361084,-0.29251202940940857
1751389810384899300,3.7148994140625,-0.18723008036613464,-1.766105055809021,-0.24325765669345856
1751389810394945300,3.7249453125,-0.23696966469287872,-1.6683145761489868,-0.20988506078720093
1751389810404991500,3.734991455078125,-0.29132506251335144,-1.549192190170288,-0.1871941238641739
1751389810415036200,3.7450361328125,-0.34619763493537903,-1.4678590297698975,-0.19066448509693146
1751389810425082000,3.75508203125,-0.43224969506263733,-1.4582492113113403,-0.23004625737667084
1751389810435127300,3.765127197265625,-0.5449227094650269,-1.4191066026687622,-0.3662429749965668
1751389810445173200,3.77517333984375,-0.675891637802124,-1.1970871686935425,-0.6623345613479614
1751389810455219200,3.78521923828125,-0.8048091530799866,-0.4945748448371887,-1.1400015354156494
1751389810465264400,3.795264404296875,-1.016153335571289,0.3735853135585785,-1.1072685718536377
1751389810475310300,3.805310302734375,-0.8406739234924316,1.5377025604248047,-0.13602547347545624
1751389810485355300,3.815355224609375,-0.4180726110935211,2.9848597049713135,0.7391300201416016
1751389810495401500,3.8254013671875,-0.2066706269979477,3.345503330230713,1.036792516708374
1751389810505447400,3.835447509765625,-0.36686694622039795,3.0554401874542236,0.7958680987358093
1751389810515492000,3.8454921875,-0.5828256011009216,2.423635482788086,0.17607036232948303
1751389810525538300,3.855538330078125,-0.7817365527153015,1.9003667831420898,-0.5538038015365601
1751389810535583200,3.865583251953125,-0.8570070862770081,1.8845428228378296,-1.0752323865890503
1751389810545629200,3.875629150390625,-0.7752275466918945,2.083601236343384,-1.2799758911132812
1751389810555675400,3.88567529296875,-0.546260416507721,2.028351068496704,-1.1409841775894165
1751389810565720300,3.89572021484375,-0.17075149714946747,1.5038329362869263,-0.7159005999565125
1751389810575766300,3.905766357421875,0.1952560395002365,0.670372486114502,-0.24610404670238495
1751389810585811500,3.9158115234375,0.5008974671363831,-0.322663813829422,-0.10319269448518753
1751389810595857400,3.925857421875,0.552155077457428,-1.4641199111938477,-0.0712033361196518
1751389810605903400,3.9359033203125,0.47586748003959656,-2.658970832824707,0.049306031316518784
1751389810615948300,3.9459482421875,0.3807918131351471,-3.5735280513763428,0.2108698934316635
1751389810625994200,3.955994140625,0.2558794319629669,-3.9776217937469482,0.357260137796402
1751389810636039200,3.9660390625,0.09545701742172241,-3.9260053634643555,0.40619784593582153
1751389810646085400,3.97608544921875,0.002490854589268565,-2.5233571529388428,-0.1371714323759079
1751389810656130300,3.98613037109375,-0.022661902010440826,-0.509052038192749,-0.9687355160713196
1751389810666176300,3.99617626953125,-0.1778016835451126,0.6400433778762817,-1.428599238395691
1751389810676222200,4.00622216796875,-0.4985983371734619,1.2063754796981812,-1.6231122016906738
1751389810686267400,4.016267333984375,-0.8416041731834412,1.5948339700698853,-1.6240792274475098
1751389810696313300,4.026313232421875,-1.1004365682601929,1.8592451810836792,-1.4517980813980103
1751389810706358300,4.036358154296875,-1.2573438882827759,1.9627400636672974,-1.1740833520889282
1751389810716404200,4.046404296875,-1.3176311254501343,1.9102436304092407,-0.8486676812171936
1751389810726450200,4.0564501953125,-1.297479510307312,1.7520771026611328,-0.5105628371238708
1751389810736495400,4.066495361328125,-1.1993135213851929,1.500252366065979,-0.18403668701648712
1751389810746541300,4.076541259765625,-1.0549331903457642,1.202343463897705,0.14953622221946716
1751389810756586200,4.086586181640625,-0.9075410962104797,0.9310746788978577,0.44883212447166443
1751389810766632200,4.096632080078125,-0.7844263911247253,0.7126525640487671,0.6875999569892883
1751389810776678400,4.106678466796875,-0.7182063460350037,0.5311235189437866,0.8221838474273682
1751389810786723300,4.116723388671875,-0.7111814618110657,0.3868052363395691,0.8641291856765747
1751389810796769300,4.126769287109375,-0.7431758642196655,0.23750922083854675,0.8128577470779419
1751389810806814200,4.136814208984375,-0.8448905348777771,0.2109852135181427,0.6142660975456238
1751389810816860200,4.146860107421875,-1.1272250413894653,0.7627801895141602,0.014483335427939892
1751389810826906000,4.156906005859375,-1.453648328781128,1.3699254989624023,-0.5837012529373169
1751389810836951300,4.166951416015625,-1.6895689964294434,1.587952971458435,-0.9158597588539124
1751389810846997200,4.176997314453125,-1.8367829322814941,1.423654556274414,-0.9958872199058533
1751389810857042400,4.18704248046875,-1.9290868043899536,1.0173120498657227,-0.9717168807983398
1751389810867088400,4.19708837890625,-1.9714382886886597,0.530193567276001,-0.9259065389633179
1751389810877134300,4.20713427734375,-1.945033311843872,0.030786408111453056,-0.876503050327301
1751389810887179300,4.21717919921875,-1.8718645572662354,-0.4466691017150879,-0.8488849997520447
1751389810897225500,4.2272255859375,-1.7535842657089233,-0.8687484264373779,-0.854910135269165
1751389810907270400,4.2372705078125,-1.5924198627471924,-1.2133904695510864,-0.8960428833961487
1751389810917316400,4.24731640625,-1.4357082843780518,-1.474995493888855,-0.9742003083229065
1751389810927362600,4.257362548828125,-1.3143805265426636,-1.6277738809585571,-1.0935088396072388
1751389810937407500,4.267407470703125,-1.2220114469528198,-1.6243336200714111,-1.2511277198791504
1751389810947453400,4.277453369140625,-1.1017640829086304,-1.1251245737075806,-1.5071606636047363
1751389810957498400,4.287498291015625,-0.9224258065223694,0.13517992198467255,-1.954380989074707
1751389810967544300,4.29754443359375,-0.8214086294174194,1.3765789270401,-2.295311450958252
1751389810977590300,4.30759033203125,-0.8893072605133057,1.9466732740402222,-2.339977264404297
1751389810987635500,4.317635498046875,-1.070482611656189,1.8996999263763428,-2.2161178588867188
1751389810997681400,4.327681396484375,-1.209610939025879,1.5582349300384521,-1.9969964027404785
1751389811007727400,4.337727294921875,-1.240069031715393,1.0963767766952515,-1.7157684564590454
1751389811017772500,4.3477724609375,-1.177003264427185,0.5414238572120667,-1.3733309507369995
1751389811027818500,4.357818603515625,-1.0559625625610352,-0.06743843108415604,-0.9957903027534485
1751389811037863400,4.367863525390625,-0.9099683165550232,-0.5711883902549744,-0.566203236579895
1751389811047909400,4.377909423828125,-0.7567750215530396,-0.5790711045265198,-0.0715775117278099
1751389811057955600,4.38795556640625,-0.6428458094596863,-0.08677218109369278,0.43942105770111084
1751389811068000300,4.398000244140625,-0.5941640138626099,0.464519739151001,0.9047279953956604
1751389811078046200,4.408046142578125,-0.6227053999900818,0.7415172457695007,1.28865647315979
1751389811088091400,4.41809130859375,-0.6656339168548584,0.7833113074302673,1.5800251960754395
1751389811098137300,4.428137451171875,-0.6588317155838013,0.7745436429977417,1.771344542503357
1751389811108183300,4.438183349609375,-0.5695393681526184,0.8386238217353821,1.8492481708526611
1751389811118228500,4.448228515625,-0.3954770267009735,0.912451982498169,1.8400094509124756
1751389811128274400,4.4582744140625,-0.16867157816886902,0.8742737174034119,1.7341610193252563
1751389811138319600,4.468319580078125,0.0851748138666153,0.7027658820152283,1.5611777305603027
1751389811148365600,4.478365478515625,0.3486407995223999,0.4808585047721863,1.3620854616165161
1751389811158411500,4.48841162109375,0.6277478337287903,0.44727975130081177,1.1898441314697266
1751389811168456200,4.498456298828125,0.9050031304359436,0.9442863464355469,1.0966801643371582
1751389811178502400,4.50850244140625,1.2060484886169434,2.035386085510254,1.1085178852081299
1751389811188548400,4.51854833984375,1.5779809951782227,2.9871785640716553,1.1984342336654663
1751389811198593300,4.52859326171875,2.0889899730682373,3.2954442501068115,1.2795381546020508
1751389811208639500,4.538639404296875,2.7325289249420166,3.1598427295684814,1.2931047677993774
1751389811218684400,4.548684326171875,3.370913505554199,2.7930102348327637,1.3040556907653809
1751389811228730400,4.55873046875,3.865832567214966,1.749206781387329,1.4589214324951172
1751389811238776300,4.5687763671875,4.200263500213623,0.30864837765693665,1.5632902383804321
1751389811248821500,4.578821533203125,4.440607070922852,-0.8130303025245667,1.4833452701568604
1751389811258867500,4.588867431640625,4.627291679382324,-1.2821404933929443,1.2807197570800781
1751389811268912400,4.598912353515625,4.7147111892700195,-1.1641353368759155,1.0798218250274658
1751389811278958300,4.608958251953125,4.672250747680664,-0.729755163192749,0.9139678478240967
1751389811289004300,4.61900439453125,4.48242712020874,-0.29653605818748474,0.7973474860191345
1751389811299049500,4.629049560546875,4.130483627319336,0.006617689039558172,0.7711736559867859
1751389811309095400,4.639095458984375,3.6724231243133545,0.16405045986175537,0.8343496918678284
1751389811319141400,4.649141357421875,3.205282211303711,0.29029974341392517,0.8692304491996765
1751389811329186600,4.6591865234375,2.717365264892578,0.49367815256118774,0.79805588722229
1751389811339232500,4.669232421875,2.2790637016296387,0.6591717600822449,0.5666519403457642
1751389811349277400,4.67927734375,1.9062414169311523,0.6414787769317627,0.14452922344207764
1751389811359323400,4.689323486328125,1.5833680629730225,0.36859428882598877,-0.37164679169654846
1751389811369369300,4.699369384765625,1.293217658996582,-0.19723530113697052,-0.8529404401779175
1751389811379414300,4.709414306640625,1.0637106895446777,-1.0366580486297607,-1.1384464502334595
1751389811389460200,4.719460205078125,0.8922125101089478,-1.9927501678466797,-1.1920268535614014
1751389811399505400,4.72950537109375,0.774514377117157,-2.7843456268310547,-1.0900219678878784
1751389811409551400,4.73955126953125,0.6502110362052917,-3.220503807067871,-0.9186244010925293
1751389811419597300,4.749597412109375,0.5147232413291931,-3.360811233520508,-0.749417245388031
1751389811429642500,4.759642578125,0.37519943714141846,-3.3287463188171387,-0.6099845170974731
1751389811439688400,4.7696884765625,0.23229928314685822,-3.1812307834625244,-0.5283975005149841
1751389811449734400,4.779734375,0.09895667433738708,-2.983454942703247,-0.5035683512687683
1751389811459779600,4.789779541015625,-0.02069036476314068,-2.750237226486206,-0.5221595764160156
1751389811469825300,4.7998251953125,-0.10962636023759842,-2.5024209022521973,-0.5341646075248718
1751389811479870200,4.8098701171875,-0.1833288073539734,-2.2638370990753174,-0.5308822393417358
1751389811489916400,4.81991650390625,-0.25952690839767456,-2.0005650520324707,-0.4977695643901825
1751389811499962400,4.82996240234375,-0.3326570391654968,-1.758716106414795,-0.4404309093952179
1751389811510007300,4.84000732421875,-0.411577433347702,-1.5897716283798218,-0.4097377061843872
1751389811520053500,4.850053466796875,-0.4996417760848999,-1.4908287525177002,-0.433697372674942
1751389811530099500,4.860099365234375,-0.6093552112579346,-1.398703694343567,-0.5568973422050476
1751389811540144400,4.870144287109375,-0.7387099862098694,-1.171870231628418,-0.7843720316886902
1751389811550190300,4.8801904296875,-0.9026731252670288,-0.5637741684913635,-1.1115554571151733
1751389811560235500,4.890235595703125,-1.1525042057037354,0.5448347926139832,-1.2660115957260132
1751389811570281200,4.90028125,-1.1818645000457764,1.4107768535614014,-0.3279227316379547
1751389811580327200,4.9103271484375,-0.8530512452125549,2.9021482467651367,0.5706381797790527
1751389811590372400,4.920372314453125,-0.5916270613670349,3.7176945209503174,0.9612096548080444
1751389811600418300,4.930418212890625,-0.5793272852897644,3.350008487701416,0.9391030073165894
1751389811610464300,4.94046435546875,-0.6457691788673401,2.374081611633301,0.42779847979545593
1751389811620509400,4.950509521484375,-0.7469239830970764,1.3787903785705566,-0.3404654264450073
1751389811630555400,4.960555419921875,-0.8942450284957886,0.77960205078125,-0.9602773189544678
1751389811640600300,4.970600341796875,-0.9691370725631714,0.5251370072364807,-1.3199070692062378
1751389811650646500,4.980646484375,-0.8842427134513855,0.5672032237052917,-1.4453984498977661
1751389811660692500,4.9906923828125,-0.671107828617096,0.8439879417419434,-1.3554989099502563
1751389811670737200,5.000737060546875,-0.6175298094749451,1.0936635732650757,-0.9000978469848633
1751389811680783400,5.010783447265625,-0.7394671440124512,1.0411287546157837,-0.12527722120285034
1751389811690829300,5.020829345703125,-0.676335871219635,0.9618213772773743,0.4064868092536926
1751389811700874200,5.030874267578125,-0.31029075384140015,1.0167725086212158,0.46252796053886414
1751389811710920400,5.04092041015625,0.196770578622818,1.058455467224121,0.1794174313545227
1751389811720966400,5.05096630859375,0.5047774314880371,0.9246801733970642,-0.13612321019172668
1751389811731011300,5.06101123046875,0.5177246332168579,0.6183844208717346,-0.2905295789241791
1751389811741057300,5.071057373046875,0.31126412749290466,0.1941566914319992,-0.16346482932567596
1751389811751102500,5.0811025390625,-0.06386420130729675,-0.22930216789245605,0.023992151021957397
1751389811761148400,5.0911484375,-0.5341190695762634,-0.5961997509002686,0.07666148990392685
1751389811771194400,5.1011943359375,-1.0525366067886353,-0.860747754573822,0.01961657777428627
1751389811781239300,5.1112392578125,-1.4940248727798462,-1.031319499015808,-0.05650109425187111
1751389811791285200,5.12128515625,-1.7848678827285767,-1.1832219362258911,-0.10889212787151337
1751389811801331200,5.131331298828125,-1.9284868240356445,-1.4266471862792969,-0.1616528183221817
1751389811811376400,5.14137646484375,-1.961549997329712,-1.765197515487671,-0.2510465979576111
1751389811821422300,5.15142236328125,-1.894687294960022,-2.1238081455230713,-0.3663122057914734
1751389811831467300,5.16146728515625,-1.7468104362487793,-2.4384000301361084,-0.49942418932914734
1751389811841513500,5.171513427734375,-1.556006669998169,-2.6922342777252197,-0.620596706867218
1751389811851559400,5.181559326171875,-1.372867226600647,-2.8152754306793213,-0.7008558511734009
1751389811861604400,5.191604248046875,-1.2306288480758667,-2.7185285091400146,-0.7080450654029846
1751389811871650600,5.201650634765625,-1.147803544998169,-2.4105453491210938,-0.6801143288612366
1751389811881696500,5.211696533203125,-1.104406714439392,-2.000736951828003,-0.6785191297531128
1751389811891741400,5.221741455078125,-1.113593339920044,-1.2557294368743896,-0.8816897869110107
1751389811901787400,5.231787353515625,-1.215301275253296,-0.10841143131256104,-1.2710617780685425
1751389811911833600,5.24183349609375,-1.3547459840774536,1.0144894123077393,-1.607608675956726
1751389811921878300,5.251878173828125,-1.481658935546875,1.7157095670700073,-1.7502079010009766
1751389811931924200,5.26192431640625,-1.5605919361114502,2.034027099609375,-1.7263654470443726
1751389811941969400,5.271969482421875,-1.57608962059021,2.177600860595703,-1.6495305299758911
1751389811952015400,5.282015380859375,-1.5162662267684937,2.249617099761963,-1.5491493940353394
1751389811962061300,5.292061279296875,-1.3990650177001953,2.26381778717041,-1.4373626708984375
1751389811972106500,5.3021064453125,-1.254956603050232,2.182448625564575,-1.3249881267547607
1751389811982152400,5.31215234375,-1.1052073240280151,1.9927971363067627,-1.220218539237976
1751389811992198400,5.322198486328125,-0.9558956027030945,1.7309585809707642,-1.1177809238433838
1751389812002243600,5.33224365234375,-0.8248973488807678,1.4641255140304565,-1.0130805969238281
1751389812012289500,5.34228955078125,-0.7050763964653015,1.2414584159851074,-0.8897714614868164
1751389812022335500,5.35233544921875,-0.6288689970970154,1.066744089126587,-0.7576661109924316
1751389812032380400,5.36238037109375,-0.6324182152748108,0.9570764303207397,-0.5915682315826416
1751389812042426400,5.37242626953125,-0.6757137179374695,0.9335500597953796,-0.40297436714172363
1751389812052472300,5.382472412109375,-0.71869957447052,0.9019213318824768,-0.2738421857357025
1751389812062517500,5.392517578125,-0.7764241099357605,0.8755536079406738,-0.20047637820243835
1751389812072563500,5.4025634765625,-0.8488003015518188,0.8959278464317322,-0.17568287253379822
1751389812082608400,5.4126083984375,-0.8570148348808289,0.9733800292015076,-0.1941806674003601
1751389812092654600,5.422654541015625,-0.786404013633728,1.146613597869873,-0.2419375330209732
1751389812102700500,5.432700439453125,-0.6549128293991089,1.4697208404541016,-0.3268367052078247
1751389812112745500,5.442745361328125,-0.47844940423965454,2.107363700866699,-0.45242178440093994
1751389812122791400,5.45279150390625,-0.36205995082855225,2.6089093685150146,-0.5180639028549194
1751389812132837600,5.462837646484375,-0.36502376198768616,2.651433229446411,-0.48942217230796814
1751389812142882300,5.47288232421875,-0.45512649416923523,2.28971529006958,-0.392451673746109
1751389812152928300,5.48292822265625,-0.5868530869483948,1.7043442726135254,-0.24321797490119934
1751389812162974500,5.492974365234375,-0.7367970943450928,1.0636435747146606,-0.03754497691988945
1751389812173019400,5.503019287109375,-0.870603084564209,0.5910521149635315,0.20105454325675964
1751389812183065300,5.5130654296875,-0.9296560287475586,0.7007112503051758,0.4417973756790161
1751389812193111300,5.523111328125,-0.8849803805351257,1.5362790822982788,0.661850094795227
1751389812203156500,5.533156494140625,-0.7344561219215393,2.2015810012817383,0.8602505326271057
1751389812213202400,5.543202392578125,-0.4945000112056732,1.9704627990722656,1.0219513177871704
1751389812223248400,5.553248291015625,-0.17787572741508484,1.1111024618148804,1.1173971891403198
1751389812233293600,5.56329345703125,0.184775710105896,0.15941709280014038,1.186820149421692
1751389812243339500,5.573339599609375,0.5954122543334961,-0.28568845987319946,1.2826974391937256
1751389812253384400,5.583384521484375,1.037977695465088,0.4215741455554962,1.4993865489959717
1751389812263430400,5.593430419921875,1.480058193206787,1.7091920375823975,1.7240780591964722
1751389812273476400,5.603476318359375,1.9665287733078003,1.7250319719314575,1.8314322233200073
1751389812283521500,5.613521484375,2.5134050846099854,0.7362551093101501,1.8044618368148804
1751389812293567500,5.6235673828125,3.0344910621643066,-0.24934937059879303,1.5563164949417114
1751389812303613400,5.633613525390625,3.4692001342773438,-0.9319005012512207,1.2327959537506104
1751389812313658400,5.643658447265625,3.8273587226867676,-1.4161713123321533,1.0421851873397827
1751389812323704600,5.65370458984375,4.11079216003418,-1.652141809463501,1.0356415510177612
1751389812333750500,5.66375048828125,4.361924171447754,-1.5888437032699585,1.123837947845459
1751389812343795500,5.67379541015625,4.554185390472412,-1.1682100296020508,1.2104685306549072
1751389812353841700,5.683841552734375,4.641031265258789,-0.45383405685424805,1.2673043012619019
1751389812363887400,5.693887451171875,4.637638092041016,0.3284902572631836,1.292385220527649
1751389812373932300,5.703932373046875,4.548787593841553,0.9353032112121582,1.2825088500976562
1751389812383978200,5.713978271484375,4.3169050216674805,1.4034302234649658,1.2696177959442139
1751389812394024400,5.7240244140625,3.9623894691467285,1.5700143575668335,1.2242099046707153
1751389812404069400,5.7340693359375,3.4978530406951904,1.4877363443374634,1.0756875276565552
1751389812414115300,5.744115234375,2.932018280029297,1.257121205329895,0.8208796977996826
1751389812424161500,5.75416162109375,2.391920566558838,0.823311984539032,0.4319721758365631
1751389812434206500,5.76420654296875,1.928002119064331,0.11715564876794815,-0.03934474289417267
1751389812444252400,5.77425244140625,1.5152188539505005,-0.8215835690498352,-0.462199866771698
1751389812454297600,5.784297607421875,1.1841742992401123,-1.8733538389205933,-0.8199446797370911
1751389812464343300,5.79434326171875,0.9277518391609192,-2.8058581352233887,-1.105070948600769
1751389812474389200,5.80438916015625,0.7303783297538757,-3.405020236968994,-1.2907233238220215
1751389812484434400,5.814434326171875,0.5967501997947693,-3.6962130069732666,-1.3677246570587158
1751389812494480400,5.82448046875,0.49491119384765625,-3.681241750717163,-1.3738254308700562
1751389812504526300,5.8345263671875,0.38849422335624695,-3.4211690425872803,-1.330937385559082
1751389812514571500,5.844571533203125,0.26774969696998596,-3.068770170211792,-1.256148338317871
1751389812524617500,5.854617431640625,0.14539021253585815,-2.766146421432495,-1.1606708765029907
1751389812534663400,5.864663330078125,0.025493375957012177,-2.5429699420928955,-1.0502852201461792
1751389812544708600,5.87470849609375,-0.0789472758769989,-2.3771677017211914,-0.9355985522270203
1751389812554754600,5.884754638671875,-0.17802858352661133,-2.1868066787719727,-0.8193044662475586
1751389812564800500,5.894800537109375,-0.27059075236320496,-2.045457601547241,-0.7025067210197449
1751389812574845400,5.904845458984375,-0.35229119658470154,-1.9811630249023438,-0.5841792821884155
1751389812584891400,5.914891357421875,-0.43267205357551575,-2.0150868892669678,-0.4768006503582001
1751389812594937300,5.924937255859375,-0.5117578506469727,-2.078173875808716,-0.3554118871688843
1751389812604982300,5.934982177734375,-0.584280788898468,-2.130636215209961,-0.24715785682201385
1751389812615028500,5.945028564453125,-0.6378851532936096,-2.1852402687072754,-0.19747552275657654
1751389812625074400,5.955074462890625,-0.6835213303565979,-2.1985867023468018,-0.2524607479572296
1751389812635119400,5.965119384765625,-0.7324217557907104,-1.9805529117584229,-0.4286525547504425
1751389812645165600,5.97516552734375,-0.7820694446563721,-1.1935288906097412,-0.7605742812156677
1751389812655211500,5.98521142578125,-0.9559707045555115,-0.3018125891685486,-0.537970781326294
1751389812665256400,5.99525634765625,-0.7556179165840149,1.1884814500808716,0.18893316388130188
1751389812675302400,6.005302490234375,-0.28455981612205505,2.8962512016296387,0.44881027936935425
1751389812685348600,6.0153486328125,0.12400689721107483,3.4699387550354004,0.43305209279060364
1751389812695393300,6.025393310546875,0.08635326474905014,2.9134607315063477,0.19929739832878113
1751389812705439200,6.035439208984375,-0.28542694449424744,1.8901196718215942,-0.0037550569977611303
1751389812715485400,6.0454853515625,-0.5798807144165039,1.1054233312606812,-0.2626507878303528
1751389812725530400,6.0555302734375,-0.9208473563194275,1.09559166431427,-0.5578531622886658
1751389812735576300,6.065576416015625,-1.1765624284744263,1.4378079175949097,-0.768842339515686
1751389812745622300,6.075622314453125,-1.143864393234253,2.014871120452881,-0.909095048904419
1751389812755667500,6.08566748046875,-0.9052997827529907,2.6192641258239746,-0.8856054544448853
1751389812765713400,6.09571337890625,-0.8328708410263062,3.1215946674346924,-0.49153831601142883
1751389812775759400,6.10575927734375,-0.827485978603363,3.176412582397461,0.2986231744289398
1751389812785804500,6.115804443359375,-0.4305647015571594,2.84163498878479,0.5595809817314148
1751389812795850500,6.1258505859375,0.19540785253047943,2.0414113998413086,0.32125046849250793
1751389812805895400,6.1358955078125,0.5814381241798401,0.7215358018875122,0.08916263282299042
1751389812815941400,6.14594140625,0.697862446308136,-0.5559729337692261,0.011182080954313278
1751389812825987300,6.1559873046875,0.5703495144844055,-1.3647829294204712,-0.020920194685459137
1751389812836032500,6.166032470703125,0.29388248920440674,-1.539007544517517,-0.13299693167209625
1751389812846078500,6.176078369140625,-0.09500294178724289,-1.398861050605774,-0.20532599091529846
1751389812856124400,6.18612451171875,-0.4795601963996887,-1.3423881530761719,-0.3935462236404419
1751389812866169300,6.19616943359375,-0.8592372536659241,-1.5214271545410156,-0.5938023328781128
1751389812876215600,6.206215576171875,-1.226264238357544,-1.5649256706237793,-0.6948069930076599
1751389812886261200,6.21626123046875,-1.4811087846755981,-1.395716905593872,-0.6601941585540771
1751389812896306000,6.226305908203125,-1.619876503944397,-1.159159779548645,-0.5124377012252808
1751389812906352000,6.23635205078125,-1.6394855976104736,-1.021374225616455,-0.3310868442058563
1751389812916398000,6.246398193359375,-1.5767199993133545,-0.9782989025115967,-0.1465950310230255
1751389812926443000,6.256443115234375,-1.4678139686584473,-1.0361448526382446,0.025425732135772705
1751389812936489200,6.2664892578125,-1.3465852737426758,-1.1371045112609863,0.15674246847629547
1751389812946535200,6.27653515625,-1.256757140159607,-1.232761025428772,0.23078128695487976
1751389812956580000,6.286580078125,-1.2168526649475098,-1.232770562171936,0.2587399482727051
1751389812966626000,6.2966259765625,-1.23416268825531,-1.1491020917892456,0.21692273020744324
1751389812976672300,6.30667236328125,-1.2881609201431274,-0.9900498390197754,0.09966614097356796
1751389812986717200,6.31671728515625,-1.3425567150115967,-0.8187217712402344,-0.08223015815019608
1751389812996763100,6.32676318359375,-1.3726608753204346,-0.6677098870277405,-0.2880445718765259
1751389813006809300,6.336809326171875,-1.3975486755371094,-0.4937085211277008,-0.496196985244751
1751389813016854000,6.34685400390625,-1.4304399490356445,-0.18003395199775696,-0.7365757822990417
1751389813026900000,6.35689990234375,-1.4745736122131348,0.2626372277736664,-1.0057971477508545
1751389813036946200,6.3669462890625,-1.5118863582611084,0.6972041130065918,-1.2358207702636719
1751389813046991000,6.3769912109375,-1.5505008697509766,0.9914823770523071,-1.37973153591156
1751389813057037000,6.387037109375,-1.5859127044677734,1.1524139642715454,-1.4772261381149292
1751389813067083000,6.3970830078125,-1.5888490676879883,1.2623649835586548,-1.55935537815094
1751389813077128200,6.407128173828125,-1.556045651435852,1.3354690074920654,-1.6321073770523071
1751389813087174100,6.417174072265625,-1.4815268516540527,1.3519566059112549,-1.6988842487335205
1751389813097220000,6.42722021484375,-1.3589661121368408,1.3755381107330322,-1.7440000772476196
1751389813107265300,6.437265380859375,-1.2308027744293213,1.4201442003250122,-1.7601710557937622
1751389813117311200,6.447311279296875,-1.1067050695419312,1.4868351221084595,-1.7386771440505981
1751389813127357200,6.457357177734375,-0.9917801022529602,1.53089439868927,-1.6812924146652222
1751389813137402000,6.467402099609375,-0.902285635471344,1.510923981666565,-1.5934786796569824
1751389813147448000,6.477447998046875,-0.8311185240745544,1.4951326847076416,-1.471543788909912
1751389813157494000,6.487493896484375,-0.7918992042541504,1.4881919622421265,-1.333641767501831
1751389813167539200,6.497539306640625,-0.788503110408783,1.4565414190292358,-1.2327383756637573
1751389813177585200,6.507585205078125,-0.7947170734405518,1.4157278537750244,-1.1447776556015015
1751389813187631000,6.517631103515625,-0.7834524512290955,1.4182312488555908,-1.05283522605896
1751389813197676300,6.52767626953125,-0.7195541858673096,1.7829862833023071,-0.9615404009819031
1751389813207722200,6.53772216796875,-0.5974226593971252,2.5537538528442383,-0.8571823239326477
1751389813217768200,6.547768310546875,-0.4925388693809509,3.098513126373291,-0.6926525235176086
1751389813227813000,6.557813232421875,-0.46988919377326965,2.9865007400512695,-0.4290584325790405
1751389813237859300,6.567859375,-0.501194417476654,2.344759225845337,-0.0952325090765953
1751389813247905000,6.577905029296875,-0.5657078623771667,1.447134256362915,0.2842863202095032
1751389813257950000,6.587949951171875,-0.6651902794837952,0.5767639875411987,0.6846411824226379
1751389813267996200,6.59799609375,-0.7860119938850403,-0.08782252669334412,1.0705127716064453
1751389813278042000,6.6080419921875,-0.8915906548500061,-0.5568249225616455,1.4011327028274536
1751389813288088000,6.618088134765625,-0.9455281496047974,-0.9275403618812561,1.6153278350830078
1751389813298133200,6.62813330078125,-0.9124850034713745,-1.2147228717803955,1.6750950813293457
1751389813308179200,6.63817919921875,-0.7510039806365967,-1.3039028644561768,1.5775578022003174
1751389813318225200,6.64822509765625,-0.4672958254814148,-0.6568282246589661,1.2235232591629028
1751389813328270000,6.65827001953125,-0.08612050116062164,0.30800601840019226,0.6629880666732788
1751389813338316300,6.66831640625,0.47364798188209534,0.5304460525512695,0.3132854700088501
1751389813348362200,6.6783623046875,1.1380659341812134,0.39979106187820435,0.2188654989004135
1751389813358407000,6.688406982421875,1.8651185035705566,0.5461565256118774,0.4287758469581604
1751389813368453000,6.698453125,2.614988327026367,1.1054542064666748,0.8843276500701904
1751389813378499000,6.7084990234375,3.332998037338257,1.6108696460723877,1.3144556283950806
1751389813388544000,6.7185439453125,4.001689434051514,1.8653382062911987,1.656801462173462
1751389813398590200,6.728590087890625,4.584724426269531,1.800458312034607,1.9394952058792114
1751389813408636200,6.73863623046875,5.059105396270752,1.533567190170288,2.0760953426361084
1751389813418681000,6.74868115234375,5.3747968673706055,1.2840601205825806,1.945251703262329
1751389813428727000,6.75872705078125,5.467619895935059,1.008315920829773,1.614782691001892
1751389813438773200,6.768773193359375,5.291051387786865,0.5748864412307739,1.2813658714294434
1751389813448818200,6.778818115234375,4.877813816070557,0.03301520645618439,1.0501395463943481
1751389813458864000,6.788864013671875,4.312261581420898,-0.28870370984077454,0.9520878195762634
1751389813468910300,6.798910400390625,3.7796943187713623,-0.4471503496170044,0.9006320834159851
1751389813478955000,6.808955078125,3.271430730819702,-0.5059865117073059,0.8545785546302795
1751389813489001000,6.8190009765625,2.805398464202881,-0.3560566306114197,0.8067428469657898
1751389813499047200,6.829047119140625,2.428959846496582,-0.23551079630851746,0.6655194163322449
1751389813509092000,6.839092041015625,2.117290496826172,-0.2536626160144806,0.3892577290534973
1751389813519138000,6.849137939453125,1.828559160232544,-0.5334277153015137,-0.0028807413764297962
1751389813529184000,6.85918408203125,1.522882342338562,-0.9415784478187561,-0.4411262571811676
1751389813539229200,6.869229248046875,1.2413824796676636,-1.2863997220993042,-0.8447490930557251
1751389813549275100,6.879275146484375,1.0016114711761475,-1.5855180025100708,-1.1814706325531006
1751389813559321000,6.889321044921875,0.8119397759437561,-1.9251983165740967,-1.370550513267517
1751389813569366300,6.8993662109375,0.6311643719673157,-2.303544521331787,-1.3729878664016724
1751389813579412200,6.909412109375,0.4352089762687683,-2.591766834259033,-1.2281532287597656
1751389813589458200,6.919458251953125,0.23309077322483063,-2.799318552017212,-1.040353536605835
1751389813599503000,6.929503173828125,0.025802303105592728,-2.9387917518615723,-0.8906875848770142
1751389813609549000,6.939549072265625,-0.16347068548202515,-3.0124852657318115,-0.8011821508407593
1751389813619595000,6.949594970703125,-0.338880330324173,-3.0608789920806885,-0.7493813037872314
1751389813629641000,6.959640869140625,-0.47388607263565063,-3.059838056564331,-0.7031373977661133
1751389813639686100,6.96968603515625,-0.56090247631073,-3.0047178268432617,-0.6579967737197876
1751389813649732000,6.979732177734375,-0.5715058445930481,-2.8924989700317383,-0.6062278747558594
1751389813659778000,6.989778076171875,-0.5230328440666199,-2.7129673957824707,-0.5519614219665527
1751389813669823200,6.9998232421875,-0.4600067436695099,-2.4873082637786865,-0.5085178017616272
1751389813679869200,7.009869140625,-0.3952282965183258,-2.225698232650757,-0.46856799721717834
1751389813689915100,7.0199150390625,-0.3773198425769806,-1.9313217401504517,-0.466947466135025
1751389813699960300,7.029960205078125,-0.41700121760368347,-1.6056421995162964,-0.5349355936050415
1751389813710006300,7.04000634765625,-0.48366519808769226,-1.1385791301727295,-0.7412762641906738
1751389813720052200,7.05005224609375,-0.542156994342804,-0.1607329547405243,-1.1768708229064941
1751389813730097200,7.06009716796875,-0.7102552056312561,1.0064629316329956,-1.2698642015457153
1751389813740143000,7.07014306640625,-0.5258933305740356,1.5760592222213745,-0.03008386678993702
1751389813750189000,7.08018896484375,-0.056104015558958054,2.563230514526367,0.7712024450302124
1751389813760234200,7.090234130859375,0.2886541783809662,2.725799798965454,0.9389504194259644
1751389813770280200,7.1002802734375,0.11523950845003128,2.0918662548065186,0.556574285030365
1751389813780326100,7.110326171875,-0.2708386778831482,1.1799111366271973,0.06226443871855736
1751389813790371000,7.12037109375,-0.5952111482620239,0.5638732314109802,-0.44210097193717957
1751389813800417300,7.130417236328125,-0.8980064392089844,0.6299302577972412,-0.7157996296882629
1751389813810463200,7.140463134765625,-1.085355281829834,0.9843434691429138,-0.7728384137153625
1751389813820508200,7.150508056640625,-1.0740339756011963,1.294028878211975,-0.7740828990936279
1751389813830554400,7.160554443359375,-0.9107006788253784,1.6029484272003174,-0.7428959608078003
1751389813840600300,7.170600341796875,-0.6581552624702454,1.6746529340744019,-0.6148999333381653
1751389813850645000,7.18064501953125,-0.5306090116500854,1.4754847288131714,-0.3074004352092743
1751389813860691000,7.19069091796875,-0.46225473284721375,1.430317997932434,0.046787478029727936
1751389813870737200,7.200737060546875,-0.2916773855686188,1.8750065565109253,0.48350009322166443
1751389813880785400,7.210785400390625,0.13893364369869232,2.6980247497558594,0.7761889696121216
1751389813890831400,7.220831298828125,0.5291522741317749,2.826857328414917,0.7764317989349365
1751389813900877600,7.230877685546875,0.6954597234725952,2.08078932762146,0.6279792189598083
1751389813910923500,7.240923583984375,0.6219834089279175,1.2013474702835083,0.37651532888412476
1751389813920968400,7.250968505859375,0.33613061904907227,0.35155004262924194,0.11553005874156952
1751389813931014700,7.2610146484375,-0.10207763314247131,-0.41467228531837463,-0.10740049183368683
1751389813941060600,7.271060546875,-0.5993577241897583,-1.0876035690307617,-0.31195148825645447
1751389813951105500,7.28110546875,-1.0507155656814575,-1.6019207239151,-0.4476856291294098
1751389813961151500,7.2911513671875,-1.3753583431243896,-1.8957035541534424,-0.4973248243331909
1751389813971197700,7.30119775390625,-1.5700876712799072,-2.045152187347412,-0.480542927980423
1751389813981242400,7.311242431640625,-1.6820999383926392,-2.1283304691314697,-0.40423935651779175
1751389813991288300,7.321288330078125,-1.719470500946045,-2.184243679046631,-0.3114396333694458
1751389814001334500,7.33133447265625,-1.6558363437652588,-2.227937936782837,-0.2507539391517639
1751389814011379500,7.34137939453125,-1.5210216045379639,-2.259181022644043,-0.21683403849601746
1751389814021425400,7.35142529296875,-1.3719590902328491,-2.3050785064697266,-0.22156594693660736
1751389814031471600,7.3614716796875,-1.237082839012146,-2.318991184234619,-0.22550103068351746
1751389814041516500,7.3715166015625,-1.1414058208465576,-2.2248051166534424,-0.2147919237613678
1751389814051562500,7.3815625,-1.0991270542144775,-2.031107187271118,-0.24206802248954773
1751389814061608400,7.3916083984375,-1.1011457443237305,-1.7582626342773438,-0.31760087609291077
1751389814071653600,7.401653564453125,-1.1441315412521362,-1.4059330224990845,-0.4529877305030823
1751389814081699600,7.411699462890625,-1.2264666557312012,-0.817926824092865,-0.6857317686080933
1751389814091745500,7.42174560546875,-1.3146369457244873,0.008832107298076153,-1.0064336061477661
1751389814101790500,7.43179052734375,-1.3624566793441772,0.8128830194473267,-1.2907936573028564
1751389814111836400,7.44183642578125,-1.3734512329101562,1.3683111667633057,-1.433983325958252
1751389814121882400,7.45188232421875,-1.3623789548873901,1.6665817499160767,-1.452648401260376
1751389814131928300,7.46192822265625,-1.3393745422363281,1.8570802211761475,-1.433452844619751
1751389814141973500,7.471973388671875,-1.3087292909622192,1.9888206720352173,-1.4064017534255981
1751389814152019500,7.48201953125,-1.2710005044937134,2.0746588706970215,-1.370619773864746
1751389814162065400,7.4920654296875,-1.215928554534912,2.1237614154815674,-1.3376381397247314
1751389814172110600,7.502110595703125,-1.1385657787322998,2.1515848636627197,-1.2964084148406982
1751389814182156500,7.512156494140625,-1.057229995727539,2.1944546699523926,-1.2299692630767822
1751389814192202500,7.522202392578125,-0.9923489689826965,2.2579967975616455,-1.1361534595489502
1751389814202247700,7.53224755859375,-0.9518462419509888,2.2927346229553223,-0.9960967898368835
1751389814212293600,7.542293701171875,-0.9416210651397705,2.2396576404571533,-0.8364307284355164
1751389814222339300,7.55233935546875,-0.9821159839630127,2.116687059402466,-0.6941902041435242
1751389814232384500,7.562384521484375,-1.05940842628479,1.94655179977417,-0.5571945309638977
1751389814242430500,7.572430419921875,-1.141309142112732,1.7263563871383667,-0.46963512897491455
1751389814252476400,7.582476318359375,-1.187042236328125,1.5265487432479858,-0.4213767945766449
1751389814262522400,7.5925224609375,-1.1460216045379639,1.3915042877197266,-0.3954474627971649
1751389814272567600,7.602567626953125,-1.0215179920196533,1.3121516704559326,-0.3873080313205719
1751389814282613500,7.612613525390625,-0.8590742349624634,1.3116872310638428,-0.403253972530365
1751389814292659500,7.622659423828125,-0.7184708118438721,1.723433494567871,-0.46442094445228577
1751389814302704600,7.63270458984375,-0.6419123411178589,2.797725200653076,-0.56217360496521
1751389814312750600,7.64275048828125,-0.6545631885528564,3.4329018592834473,-0.5388631820678711
1751389814322796500,7.652796630859375,-0.7198631167411804,3.282522678375244,-0.3996214270591736
1751389814332841500,7.662841552734375,-0.8297621607780457,2.5864391326904297,-0.17713376879692078
1751389814342887400,7.672887451171875,-0.9556077122688293,1.7202409505844116,0.1044960469007492
1751389814352933400,7.682933349609375,-1.039082646369934,1.1636240482330322,0.44217902421951294
1751389814362978600,7.692978515625,-0.9974513053894043,1.1929038763046265,0.8469853401184082
1751389814373024500,7.7030244140625,-0.7997578978538513,1.1501667499542236,1.235129952430725
1751389814383070500,7.713070556640625,-0.4817919433116913,0.5584979057312012,1.484804391860962
1751389814393116400,7.723116455078125,-0.09485966712236404,-0.30031323432922363,1.5875065326690674
1751389814403161600,7.73316162109375,0.3383154571056366,-0.7849233150482178,1.587376594543457
1751389814413207600,7.74320751953125,0.7130877375602722,-0.2026231437921524,1.2969666719436646
1751389814423253500,7.75325341796875,1.0978628396987915,0.3640200197696686,0.9787154197692871
1751389814433298700,7.763298583984375,1.5624585151672363,0.37252482771873474,0.8708555102348328
1751389814443344600,7.7733447265625,2.1282999515533447,-0.010294449515640736,0.9649442434310913
1751389814453390600,7.783390625,2.8035998344421387,-0.4470755159854889,1.1531397104263306
1751389814463435500,7.793435546875,3.4384989738464355,-0.8626120090484619,1.3262838125228882
1751389814473481500,7.8034814453125,3.971757411956787,-1.2149988412857056,1.4653308391571045
1751389814483527400,7.81352734375,4.387486934661865,-1.4720427989959717,1.576320767402649
1751389814493572400,7.823572265625,4.6990251541137695,-1.5125670433044434,1.6578470468521118
1751389814503618600,7.83361865234375,4.932352542877197,-1.1531857252120972,1.6769310235977173
1751389814513664500,7.84366455078125,5.09136962890625,-0.35086774826049805,1.560102939605713
1751389814523710500,7.85371044921875,5.114133358001709,0.584142804145813,1.3326224088668823
1751389814533755600,7.863755615234375,4.924489974975586,1.2723419666290283,1.1084926128387451
1751389814543801600,7.873801513671875,4.602664470672607,1.5952869653701782,0.9498147964477539
1751389814553847600,7.88384765625,4.211084365844727,1.7990134954452515,0.8591176271438599
1751389814563892500,7.893892578125,3.783524513244629,1.9109303951263428,0.7210924029350281
1751389814573938700,7.903938720703125,3.283938407897949,2.0771281719207764,0.5390704274177551
1751389814583984600,7.913984619140625,2.74668025970459,1.9553780555725098,0.2337440550327301
1751389814594029300,7.924029296875,2.246049165725708,1.4185689687728882,-0.22200217843055725
1751389814604075500,7.934075439453125,1.8092185258865356,0.2858797013759613,-0.6542792916297913
1751389814614121500,7.94412158203125,1.399009108543396,-1.1691175699234009,-0.9636906385421753
1751389814624166400,7.95416650390625,1.0423675775527954,-2.486487865447998,-1.1592707633972168
1751389814634212600,7.964212646484375,0.761070728302002,-3.4258840084075928,-1.2829951047897339
1751389814644258600,7.974258544921875,0.5504040122032166,-3.900186777114868,-1.3151898384094238
1751389814654304500,7.984304443359375,0.38179609179496765,-4.0481767654418945,-1.292664885520935
1751389814664349400,7.994349365234375,0.20397470891475677,-3.947113513946533,-1.2502505779266357
1751389814674395600,8.004395751953124,0.022651515901088715,-3.721005916595459,-1.1820051670074463
1751389814684441600,8.014441650390625,-0.17449457943439484,-3.4435677528381348,-1.0602185726165771
1751389814694486500,8.024486572265625,-0.39412012696266174,-3.140955686569214,-0.9228423237800598
1751389814704532700,8.03453271484375,-0.596919596195221,-2.892197370529175,-0.7677083611488342
1751389814714578700,8.04457861328125,-0.7692018747329712,-2.725951671600342,-0.61620032787323
1751389814724623400,8.054623291015625,-0.9094367623329163,-2.586425542831421,-0.47430527210235596
1751389814734669600,8.064669677734376,-1.0073527097702026,-2.4210257530212402,-0.3220837712287903
1751389814744715500,8.074715576171876,-1.062788963317871,-2.2326483726501465,-0.18596987426280975
1751389814754760400,8.084760498046874,-1.066744327545166,-2.0683975219726562,-0.08294574916362762
1751389814764806400,8.094806396484374,-1.022890329360962,-1.9383809566497803,-0.018269285559654236
1751389814774852600,8.1048525390625,-0.927309513092041,-1.7982816696166992,-0.014178137294948101
1751389814784898600,8.114898681640625,-0.7905446887016296,-1.60060715675354,-0.09030619263648987
1751389814794943500,8.124943603515625,-0.6529048085212708,-1.2817237377166748,-0.3014937937259674
1751389814804989700,8.13498974609375,-0.5182501077651978,-0.5412206649780273,-0.7517238259315491
1751389814815035600,8.14503564453125,-0.4740954041481018,0.8898654580116272,-1.3227518796920776
1751389814825080300,8.155080322265626,-0.4510217607021332,1.8381859064102173,-0.68434077501297
1751389814835126300,8.165126220703126,-0.014282799325883389,2.9604671001434326,0.41947129368782043
1751389814845172500,8.17517236328125,0.5360596776008606,3.7631149291992188,0.9838220477104187
1751389814855217400,8.185217529296875,0.8940868377685547,3.739603281021118,0.955862283706665
1751389814865263400,8.195263427734375,0.6770972609519958,2.967648506164551,0.6108114123344421
1751389814875309600,8.2053095703125,0.13129091262817383,1.9876986742019653,0.15623220801353455
1751389814885352000,8.21535205078125,-0.6515756249427795,1.5050811767578125,-0.362754225730896
1751389814895396900,8.22539697265625,-1.4074089527130127,1.5123984813690186,-0.7887489199638367
1751389814905443000,8.235443115234375,-1.736877202987671,1.6386408805847168,-1.0374482870101929
1751389814915489000,8.245489013671875,-1.6920268535614014,1.77506422996521,-1.1199028491973877
1751389814925534000,8.255533935546875,-1.4163905382156372,1.6061241626739502,-1.110610842704773
1751389814935580000,8.265579833984376,-1.044983148574829,1.044105052947998,-0.9774261713027954
1751389814945626000,8.275626220703124,-0.7671837210655212,0.29211121797561646,-0.6447206735610962
1751389814955670800,8.2856708984375,-0.5854302048683167,-0.3717253506183624,-0.04290911927819252
1751389814965716700,8.295716796875,-0.18973851203918457,-0.35225817561149597,0.43466782569885254
1751389814975763000,8.305762939453125,0.36852049827575684,-0.07079454511404037,0.45722508430480957
1751389814985808000,8.315807861328125,0.789695680141449,-0.3596556484699249,0.3961595892906189
1751389814995853800,8.325853759765625,1.0162327289581299,-0.8853718638420105,0.23958435654640198
1751389815005900000,8.335900146484375,1.0017296075820923,-1.0701723098754883,-0.16720736026763916
1751389815015946000,8.345946044921876,0.8279253840446472,-0.8996618986129761,-0.7020241618156433
1751389815025991000,8.355990966796876,0.5155176520347595,-0.7602110505104065,-0.8866472840309143
1751389815036036900,8.366036865234374,0.05992431938648224,-0.7550972700119019,-0.8386099934577942
1751389815046083000,8.3760830078125,-0.44504058361053467,-0.7315263748168945,-0.7433042526245117
1751389815056128000,8.3861279296875,-0.9241001009941101,-0.5794042348861694,-0.6093613505363464
1751389815066174000,8.396174072265625,-1.2942595481872559,-0.435942679643631,-0.4254903197288513
1751389815076220200,8.40622021484375,-1.5321743488311768,-0.34032589197158813,-0.19744622707366943
1751389815086264800,8.416264892578125,-1.632664442062378,-0.3613811135292053,0.0003462109307292849
1751389815096310800,8.426310791015625,-1.6027007102966309,-0.4816872775554657,0.13873231410980225
1751389815106356700,8.436356689453126,-1.5102804899215698,-0.6631598472595215,0.2353600561618805
1751389815116403000,8.44640283203125,-1.4173353910446167,-0.8964583873748779,0.28862619400024414
1751389815126447900,8.45644775390625,-1.3567410707473755,-1.1361374855041504,0.30047833919525146
1751389815136493800,8.466493896484375,-1.3324593305587769,-1.3466836214065552,0.28226470947265625
1751389815146540000,8.4765400390625,-1.3191132545471191,-1.445412039756775,0.23686261475086212
1751389815156585000,8.4865849609375,-1.309043049812317,-1.4132575988769531,0.15857632458209991
1751389815166631000,8.496630859375,-1.3099567890167236,-1.2842018604278564,0.03539500758051872
1751389815176676900,8.5066767578125,-1.3323179483413696,-1.1074771881103516,-0.1308397650718689
1751389815186722000,8.51672216796875,-1.3778921365737915,-0.9104439616203308,-0.3287917375564575
1751389815196767700,8.526767822265626,-1.4145363569259644,-0.6997948288917542,-0.5411708354949951
1751389815206813700,8.536813720703124,-1.4432892799377441,-0.4198547899723053,-0.7543901801109314
1751389815216859000,8.54685888671875,-1.4749059677124023,0.013012205250561237,-1.0060926675796509
1751389815226904800,8.55690478515625,-1.5010968446731567,0.4954869747161865,-1.2296091318130493
1751389815236950800,8.56695068359375,-1.503252387046814,0.8547926545143127,-1.349607229232788
1751389815246997000,8.5769970703125,-1.4889675378799438,1.1489076614379883,-1.4127614498138428
1751389815257042000,8.5870419921875,-1.4413152933120728,1.4221043586730957,-1.4398454427719116
1751389815267088000,8.597087890625,-1.3591681718826294,1.6713250875473022,-1.4340898990631104
1751389815277133800,8.6071337890625,-1.2469381093978882,1.8896890878677368,-1.409371256828308
1751389815287179000,8.617178955078124,-1.1349103450775146,2.0739760398864746,-1.372558832168579
1751389815297225000,8.627224853515624,-1.0718616247177124,2.2241013050079346,-1.338415265083313
1751389815307271000,8.63727099609375,-1.0873990058898926,2.415653705596924,-1.2645485401153564
1751389815317315800,8.64731591796875,-1.123818278312683,2.6591434478759766,-1.1272974014282227
1751389815327361800,8.65736181640625,-1.2124629020690918,2.6954357624053955,-1.0343844890594482
1751389815337407700,8.66740771484375,-1.334608793258667,2.553192138671875,-0.9751406311988831
1751389815347454000,8.677453857421876,-1.431810975074768,2.317774534225464,-0.9264801740646362
1751389815357499000,8.687498779296876,-1.4498331546783447,2.011084794998169,-0.8998163342475891
1751389815367544800,8.697544921875,-1.3829760551452637,1.6414297819137573,-0.8868861794471741
1751389815377590800,8.7075908203125,-1.2625484466552734,1.2363789081573486,-0.8705127835273743
1751389815387636000,8.717635986328125,-1.1098986864089966,0.8722430467605591,-0.8220589756965637
1751389815397682000,8.727681884765625,-0.9422569870948792,0.5907019376754761,-0.7441329956054688
1751389815407727900,8.737727783203125,-0.8111072778701782,0.4483756422996521,-0.6206467747688293
1751389815417773000,8.74777294921875,-0.7326446771621704,0.5843803882598877,-0.4557882845401764
1751389815427819000,8.757819091796875,-0.7232639193534851,1.7101725339889526,-0.2733420729637146
1751389815437865000,8.767864990234376,-0.8095421195030212,3.4014906883239746,-0.04267289489507675
1751389815447910000,8.777909912109376,-0.9133102893829346,4.107316970825195,0.2372860461473465
1751389815457955800,8.787955810546874,-0.9461804032325745,3.6612040996551514,0.5205324292182922
1751389815468001800,8.798001708984375,-0.8414902091026306,2.581648111343384,0.7820963859558105
1751389815478047700,8.8080478515625,-0.5860983729362488,1.3282734155654907,1.0088533163070679
1751389815488093000,8.818093017578125,-0.20967839658260345,0.3510674834251404,1.2189000844955444
1751389815498139000,8.828138916015625,0.25208231806755066,0.060858022421598434,1.4685434103012085
1751389815508184800,8.838184814453125,0.6776831746101379,0.6322296261787415,1.5706464052200317
1751389815518230000,8.84822998046875,1.0859233140945435,0.9561858773231506,1.4607313871383667
1751389815528276000,8.85827587890625,1.5955168008804321,0.5868427157402039,1.4202419519424438
1751389815538322000,8.868322021484374,2.2426035404205322,-0.26178741455078125,1.433142900466919
1751389815548367000,8.8783671875,3.04510498046875,-1.1836084127426147,1.3610577583312988
1751389815558413000,8.8884130859375,3.821418285369873,-1.8092011213302612,1.2406085729599
1751389815568459000,8.898458984375,4.449886798858643,-2.171351909637451,1.2002537250518799
1751389815578505000,8.9085048828125,4.910831928253174,-2.2477524280548096,1.2679709196090698
1751389815588550000,8.9185498046875,5.225981712341309,-1.8911244869232178,1.4196903705596924
1751389815598595800,8.928595947265626,5.435811996459961,-1.1650091409683228,1.5879952907562256
1751389815608641800,8.938641845703126,5.475527286529541,-0.25599661469459534,1.6527199745178223
1751389815618687000,8.94868701171875,5.297101974487305,0.5582520961761475,1.6141562461853027
1751389815628733000,8.95873291015625,4.974931716918945,1.1445651054382324,1.5558546781539917
1751389815638779000,8.96877880859375,4.58227014541626,1.5500553846359253,1.5018359422683716
1751389815648824000,8.978823974609375,4.149449348449707,1.9377061128616333,1.4024198055267334
1751389815658870000,8.9888701171875,3.6635143756866455,2.144913911819458,1.1342061758041382
1751389815668916000,8.998916015625,3.13063645362854,2.1703591346740723,0.7423295378684998
1751389815678961200,9.008961181640625,2.614734411239624,1.956021785736084,0.2475368231534958
1751389815689007000,9.019007080078126,2.175556182861328,1.3855905532836914,-0.35125017166137695
1751389815699052800,9.029052734375,1.7618554830551147,0.22607867419719696,-0.877859890460968
1751389815709098800,9.0390986328125,1.4053906202316284,-1.3169355392456055,-1.1614247560501099
1751389815719144000,9.04914404296875,1.1226587295532227,-2.7785558700561523,-1.2825541496276855
1751389815729190000,9.05918994140625,0.8974431753158569,-3.7814419269561768,-1.372103214263916
1751389815739235800,9.06923583984375,0.6897792220115662,-4.242856025695801,-1.4503202438354492
1751389815749281000,9.079281005859375,0.49164697527885437,-4.422287940979004,-1.488158106803894
1751389815759327000,9.089326904296875,0.2769421339035034,-4.368889331817627,-1.480294942855835
1751389815769373000,9.099373046875,0.027519242838025093,-4.143829822540283,-1.4477559328079224
1751389815779418000,9.109418212890626,-0.21955658495426178,-3.797438144683838,-1.3991928100585938
1751389815789464000,9.119464111328124,-0.45085105299949646,-3.424137592315674,-1.3283556699752808
1751389815799510000,9.129510009765625,-0.6600580811500549,-3.12013840675354,-1.2184557914733887
1751389815809554700,9.1395546875,-0.8421618342399597,-2.910125255584717,-1.0778661966323853
1751389815819601000,9.149600830078125,-0.9950461983680725,-2.775448799133301,-0.920745313167572
1751389815829646800,9.159646728515625,-1.0969808101654053,-2.5938706398010254,-0.740213930606842
1751389815839692800,9.16969287109375,-1.1519356966018677,-2.415665864944458,-0.5633741617202759
1751389815849738000,9.179738037109376,-1.1718637943267822,-2.2536072731018066,-0.4067392647266388
1751389815859784000,9.189783935546876,-1.129950761795044,-2.133089065551758,-0.2742730975151062
1751389815869830000,9.199829833984374,-1.047609567642212,-2.039198398590088,-0.20379866659641266
1751389815879875000,9.209875,-0.9163417816162109,-1.8812881708145142,-0.23040470480918884
1751389815889920500,9.21992041015625,-0.7190151214599609,-1.461676001548767,-0.4344521164894104
1751389815899966500,9.229966552734375,-0.48714303970336914,-0.14201092720031738,-1.0151174068450928
1751389815910011600,9.24001171875,-0.4261012375354767,1.3648172616958618,-0.8577719330787659
1751389815920057600,9.2500576171875,-0.026313895359635353,2.497974395751953,0.37941044569015503
1751389815930103600,9.260103515625,0.5603232383728027,3.4703283309936523,0.8338293433189392
1751389815940148500,9.2701484375,1.1115754842758179,3.543435573577881,0.7740645408630371
1751389815950194700,9.280194580078126,1.4116535186767578,3.0351076126098633,0.44515377283096313
1751389815960240600,9.29024072265625,1.082587480545044,2.03059720993042,0.048719070851802826
1751389815970286600,9.30028662109375,0.293824702501297,1.3549718856811523,-0.26223480701446533
1751389815980331800,9.310331787109375,-0.7482667565345764,1.3367574214935303,-0.5715281963348389
1751389815990377700,9.320377685546875,-1.703853964805603,1.684782862663269,-0.8004884123802185
1751389816000423700,9.330423583984375,-1.9868465662002563,1.977183222770691,-0.9668944478034973
1751389816010468600,9.340468505859375,-1.5355679988861084,2.0418148040771484,-0.9938799738883972
1751389816020514600,9.3505146484375,-0.9442988634109497,2.1862306594848633,-0.7034460306167603
1751389816030560500,9.360560546875,-0.41676926612854004,2.262774705886841,-0.16977785527706146
1751389816040605400,9.37060546875,0.14672605693340302,1.685006022453308,0.08726459741592407
1751389816050651600,9.380651611328124,0.540723443031311,0.6103160977363586,0.25967976450920105
1751389816060697600,9.390697509765625,0.7611585855484009,-0.5342876315116882,0.44769787788391113
1751389816070742500,9.400742431640625,0.7451900243759155,-1.1613765954971313,0.6158463954925537
1751389816080788700,9.410788818359375,0.5222607851028442,-0.895336925983429,0.47860094904899597
1751389816090834700,9.420834716796875,0.20938996970653534,-0.44738683104515076,0.17599312961101532
1751389816100880600,9.430880615234376,-0.1334720402956009,-0.29659783840179443,-0.1585148125886917
1751389816110925300,9.44092529296875,-0.5615165829658508,-0.5019310116767883,-0.43660661578178406
1751389816120971500,9.450971435546874,-1.0349563360214233,-0.8100784420967102,-0.6402324438095093
1751389816131017500,9.461017578125,-1.403327465057373,-0.9688097834587097,-0.6966560482978821
1751389816141062400,9.4710625,-1.631900429725647,-1.016753077507019,-0.6470336318016052
1751389816151108600,9.481108642578125,-1.7363202571868896,-0.980744481086731,-0.5258544683456421
1751389816161154600,9.491154541015625,-1.718854546546936,-0.9719962477684021,-0.3968368172645569
1751389816171199500,9.501199462890625,-1.6395522356033325,-1.007184624671936,-0.2999630272388458
1751389816181245400,9.511245361328125,-1.538431167602539,-1.035053014755249,-0.21351441740989685
1751389816191291600,9.521291748046876,-1.4339218139648438,-1.0554230213165283,-0.12550678849220276
1751389816201336600,9.531336669921876,-1.3474692106246948,-1.0427165031433105,-0.045409027487039566
1751389816211382500,9.541382568359374,-1.3057539463043213,-0.9698886275291443,-0.01302339043468237
1751389816221428700,9.5514287109375,-1.2909375429153442,-0.8581538796424866,-0.08646830916404724
1751389816231473400,9.561473388671875,-1.2910975217819214,-0.735823929309845,-0.2285146713256836
1751389816241519400,9.571519287109375,-1.291867971420288,-0.666934072971344,-0.396931916475296
1751389816251565600,9.581565673828125,-1.3049952983856201,-0.6240130066871643,-0.5712277889251709
1751389816261611500,9.591611572265625,-1.3404909372329712,-0.5249127745628357,-0.7640854120254517
1751389816271656400,9.601656494140625,-1.4482568502426147,-0.060750965029001236,-1.1216390132904053
1751389816281702400,9.611702392578126,-1.5888546705245972,0.655942440032959,-1.5515904426574707
1751389816291748600,9.62174853515625,-1.7229129076004028,1.230595588684082,-1.8489667177200317
1751389816301793500,9.63179345703125,-1.8099018335342407,1.4117646217346191,-1.9486218690872192
1751389816311839500,9.641839599609375,-1.8450156450271606,1.3343547582626343,-1.9398939609527588
1751389816321885700,9.6518857421875,-1.8306691646575928,1.2053887844085693,-1.9154945611953735
1751389816331930600,9.6619306640625,-1.7509791851043701,1.0650808811187744,-1.8857399225234985
1751389816341976600,9.6719765625,-1.5953469276428223,0.9307715892791748,-1.8362923860549927
1751389816352022500,9.6820224609375,-1.3819355964660645,0.8161294460296631,-1.7662349939346313
1751389816362067500,9.6920673828125,-1.162379503250122,0.726924479007721,-1.6740797758102417
1751389816372113400,9.702113525390626,-0.9961223602294922,0.6179793477058411,-1.583565592765808
1751389816382159400,9.712159423828124,-0.8951930999755859,0.5580970644950867,-1.4935659170150757
1751389816392205600,9.72220556640625,-0.8523519039154053,0.5974863171577454,-1.3779575824737549
1751389816402250500,9.73225048828125,-0.861569881439209,0.7503112554550171,-1.2447210550308228
1751389816412296400,9.74229638671875,-0.8868094682693481,1.3103359937667847,-1.1263370513916016
1751389816422342700,9.7523427734375,-0.8837612271308899,2.765760898590088,-1.0806812047958374
1751389816432387600,9.7623876953125,-0.8483139872550964,4.173130035400391,-0.9992609024047852
1751389816442433500,9.77243359375,-0.8343020677566528,4.683266639709473,-0.8038727641105652
1751389816452479500,9.7824794921875,-0.8315752148628235,4.447820663452148,-0.5384533405303955
1751389816462524700,9.792524658203124,-0.7729460000991821,3.6900088787078857,-0.20932285487651825
1751389816472570600,9.802570556640624,-0.6564745306968689,2.500969648361206,0.29517650604248047
1751389816482616600,9.812616455078125,-0.5172165036201477,1.065895915031433,0.8650498390197754
1751389816492661500,9.82266162109375,-0.4437260329723358,-0.2686769962310791,1.2458871603012085
1751389816502707500,9.83270751953125,-0.4608139395713806,-1.2410304546356201,1.4775382280349731
1751389816512753400,9.84275341796875,-0.5407748222351074,-1.4947811365127563,1.6634080410003662
1751389816522798600,9.852798583984375,-0.6476983428001404,-0.9357234835624695,1.726647973060608
1751389816532844500,9.862844482421876,-0.7147860527038574,-0.317215234041214,1.6273796558380127
1751389816542890500,9.872890380859374,-0.67672199010849,-0.38993364572525024,1.4439043998718262
1751389816552935700,9.882935791015624,-0.5163917541503906,-0.9167543053627014,1.2038768529891968
1751389816562981600,9.892981689453125,-0.23773959279060364,-1.4164706468582153,0.9195572733879089
1751389816573027600,9.903027587890625,0.12265827506780624,-1.4755816459655762,0.5551401972770691
1751389816583073500,9.913073486328125,0.5184245109558105,-0.8000306487083435,0.1817740648984909
1751389816593118700,9.92311865234375,0.9640911817550659,0.3362294137477875,0.042749326676130295
1751389816603164400,9.933164306640625,1.5054900646209717,1.4696038961410522,0.26905331015586853
1751389816613210400,9.94321044921875,2.139777421951294,2.3297996520996094,0.7370993494987488
1751389816623255600,9.953255615234376,2.8302886486053467,2.5025599002838135,1.1575334072113037
1751389816633301500,9.963301513671874,3.4734959602355957,2.144160270690918,1.4545117616653442
1751389816643347500,9.973347412109375,4.017138957977295,1.6318024396896362,1.692276120185852
1751389816653392600,9.983392578125,4.465590476989746,1.1109416484832764,1.9121145009994507
1751389816663438600,9.9934384765625,4.827179908752441,0.8201830387115479,2.102976083755493
1751389816673484500,10.003484619140625,5.117292881011963,1.1390951871871948,2.1238865852355957
1751389816683529700,10.01352978515625,5.300518989562988,1.7395563125610352,1.766542673110962
1751389816693575700,10.02357568359375,5.256393909454346,1.8466718196868896,1.2769396305084229
1751389816703621600,10.03362158203125,5.002929210662842,1.35382080078125,0.9207072257995605
1751389816713666600,10.04366650390625,4.562052249908447,0.6065823435783386,0.7343528270721436
1751389816723712500,10.05371240234375,3.972799777984619,-0.1148512214422226,0.6293856501579285
1751389816733758500,10.063758544921875,3.2770261764526367,-0.6196954846382141,0.5144412517547607
1751389816743804400,10.073804443359375,2.591207981109619,-0.8853186368942261,0.36044368147850037
1751389816753849600,10.083849609375,2.0575757026672363,-0.984030544757843,0.1546550840139389
1751389816763895600,10.0938955078125,1.6864099502563477,-1.0511635541915894,-0.11035766452550888
1751389816773941500,10.10394140625,1.3662400245666504,-1.135985255241394,-0.40884077548980713
1751389816783986700,10.113986572265626,1.0710102319717407,-1.2984691858291626,-0.7195496559143066
1751389816794032600,10.12403271484375,0.8202498555183411,-1.573470950126648,-0.9897816777229309
1751389816804078600,10.13407861328125,0.6190723180770874,-1.8084897994995117,-1.1265379190444946
1751389816814123500,10.14412353515625,0.43978428840637207,-2.04573655128479,-1.104567050933838
1751389816824169700,10.154169677734375,0.27183496952056885,-2.3189384937286377,-0.9767308235168457
1751389816834215700,10.164215576171875,0.10340148955583572,-2.5901081562042236,-0.8277466893196106
1751389816844260400,10.17426025390625,-0.06895110756158829,-2.8022308349609375,-0.691504180431366
1751389816854306600,10.184306640625,-0.23301275074481964,-2.8999197483062744,-0.5955235362052917
1751389816864352500,10.1943525390625,-0.3758527338504791,-2.9238572120666504,-0.546858012676239
1751389816874397400,10.2043974609375,-0.48766660690307617,-2.9253034591674805,-0.5149445533752441
1751389816884444000,10.21444384765625,-0.5488082766532898,-2.911919593811035,-0.4899428188800812
1751389816894490000,10.224489990234375,-0.5594022870063782,-2.842571258544922,-0.4645999073982239
1751389816904535000,10.23453515625,-0.5262123942375183,-2.7311012744903564,-0.4191061854362488
1751389816914581000,10.2445810546875,-0.4691815972328186,-2.5165233612060547,-0.3522190451622009
1751389816924627000,10.254626953125,-0.4130440354347229,-2.2233424186706543,-0.2520303726196289
1751389816934672100,10.264672119140625,-0.3795633018016815,-1.8985917568206787,-0.13568219542503357
1751389816944718000,10.274718017578126,-0.3892638683319092,-1.6039888858795166,-0.06186576560139656
1751389816954764000,10.284763916015624,-0.41925719380378723,-1.2785156965255737,-0.10991824418306351
1751389816964810000,10.29481005859375,-0.434478759765625,-0.7543848752975464,-0.34151551127433777
1751389816974855000,10.30485498046875,-0.4602386951446533,0.1189010888338089,-0.7667602896690369
1751389816984900900,10.31490087890625,-0.6395677328109741,0.6168938279151917,-0.6365610361099243
1751389816994947000,10.324947021484375,-0.46193167567253113,1.501526117324829,0.08970645070075989
1751389817004992000,10.334991943359375,-0.029807429760694504,2.7021377086639404,0.46945297718048096
1751389817015038000,10.345037841796875,0.3320722281932831,3.0810093879699707,0.520104169845581
1751389817025084000,10.355083984375,0.16183577477931976,2.6858503818511963,0.22216728329658508
1751389817035129000,10.365129150390626,-0.3689152002334595,2.0899758338928223,-0.08769523352384567
1751389817045175000,10.375175048828124,-0.9889731407165527,1.6636828184127808,-0.4130147397518158
1751389817055221000,10.385220947265625,-1.5808894634246826,1.629494547843933,-0.7046460509300232
1751389817065266000,10.395265869140625,-1.8475205898284912,1.6965489387512207,-0.9221301674842834
1751389817075311900,10.405311767578125,-1.6937512159347534,1.7190358638763428,-1.1049079895019531
1751389817085357800,10.41535791015625,-1.1720998287200928,1.486285924911499,-1.1228760480880737
1751389817095403000,10.425403076171875,-0.6059884428977966,1.1391605138778687,-0.832273542881012
1751389817105449000,10.435448974609375,-0.16573303937911987,0.9691722393035889,-0.28275206685066223
1751389817115495000,10.445494873046876,0.3065556585788727,0.5759767293930054,0.11971841007471085
1751389817125540900,10.455540771484374,0.6789159178733826,-0.24812591075897217,0.33582568168640137
1751389817135586000,10.4655859375,0.9125052690505981,-1.1856744289398193,0.501944899559021
1751389817145632000,10.475632080078125,0.9926405549049377,-1.8462446928024292,0.5661818981170654
1751389817155677200,10.48567724609375,0.9018430113792419,-1.5252234935760498,0.09942885488271713
1751389817165723100,10.49572314453125,0.750014066696167,-0.615379810333252,-0.7320313453674316
1751389817175769000,10.50576904296875,0.5436619520187378,-0.11642887443304062,-1.1743820905685425
1751389817185815000,10.51581494140625,0.1731206476688385,-0.1140059307217598,-1.21537184715271
1751389817195860000,10.52585986328125,-0.30130577087402344,-0.16775651276111603,-1.1690040826797485
1751389817205906000,10.535906005859376,-0.787223219871521,-0.10133834183216095,-1.0617066621780396
1751389817215952000,10.545951904296874,-1.208638310432434,-0.012899553403258324,-0.8517031669616699
1751389817225997000,10.5559970703125,-1.5250309705734253,0.018251707777380943,-0.5988817811012268
1751389817236043000,10.56604296875,-1.6956530809402466,-0.08013851195573807,-0.3512222170829773
1751389817246089000,10.5760888671875,-1.7295774221420288,-0.2785211205482483,-0.12960432469844818
1751389817256134100,10.586134033203125,-1.67173171043396,-0.5475014448165894,0.09087025374174118
1751389817266180000,10.59618017578125,-1.5584919452667236,-0.7966265678405762,0.3013337552547455
1751389817276226000,10.60622607421875,-1.4405744075775146,-0.9542497396469116,0.49223098158836365
1751389817286271000,10.61627099609375,-1.3570294380187988,-1.0246464014053345,0.6298620700836182
1751389817296317200,10.626317138671874,-1.307411551475525,-1.0483049154281616,0.6501977443695068
1751389817306363100,10.636363037109374,-1.275073528289795,-1.0256749391555786,0.5669829845428467
1751389817316407800,10.64640771484375,-1.2610400915145874,-0.9742003083229065,0.4107595682144165
1751389817326454000,10.6564541015625,-1.2589102983474731,-0.8911600112915039,0.2069864720106125
1751389817336500000,10.6665,-1.2594754695892334,-0.7505773305892944,-0.01341727189719677
1751389817346545000,10.676544921875,-1.2904794216156006,-0.33067432045936584,-0.3459712564945221
1751389817356591000,10.686591064453125,-1.3562473058700562,0.39283517003059387,-0.8115056753158569
1751389817366637000,10.696636962890626,-1.412231206893921,1.0500378608703613,-1.21320378780365
1751389817376683000,10.70668310546875,-1.4289201498031616,1.3741484880447388,-1.4256199598312378
1751389817386728000,10.71672802734375,-1.4265187978744507,1.4355570077896118,-1.5031658411026
1751389817396774100,10.726774169921875,-1.4244319200515747,1.4256391525268555,-1.5337677001953125
1751389817406820000,10.736820068359375,-1.4172533750534058,1.383685827255249,-1.5507434606552124
1751389817416865000,10.746864990234375,-1.3828767538070679,1.335801362991333,-1.5544730424880981
1751389817426911200,10.7569111328125,-1.3352988958358765,1.3029611110687256,-1.5370855331420898
1751389817436957200,10.766957275390626,-1.2789205312728882,1.2623039484024048,-1.4801313877105713
1751389817447001900,10.777001953125,-1.2411893606185913,1.1994270086288452,-1.3942058086395264
1751389817457048000,10.787048095703126,-1.2472225427627563,1.0827473402023315,-1.2978206872940063
1751389817467094000,10.797093994140624,-1.2962359189987183,0.905731201171875,-1.1949318647384644
1751389817477139000,10.807138916015624,-1.3716599941253662,0.7011263966560364,-1.105667233467102
1751389817487185000,10.817184814453125,-1.4463955163955688,0.5154635906219482,-1.037811517715454
1751389817497231000,10.827231201171875,-1.458335280418396,0.3911171555519104,-0.9852002263069153
1751389817507276000,10.837276123046875,-1.3927363157272339,0.32476237416267395,-0.9501985311508179
1751389817517322000,10.847322021484375,-1.2807825803756714,0.31643813848495483,-0.9196630120277405
1751389817527368200,10.8573681640625,-1.1731224060058594,0.6459254622459412,-0.8971902132034302
1751389817537413000,10.8674130859375,-1.0820518732070923,1.6941161155700684,-0.8720843195915222
1751389817547459000,10.877458984375,-1.0342018604278564,2.602090835571289,-0.7533131837844849
1751389817557504800,10.8875048828125,-1.0553635358810425,2.7303476333618164,-0.5481866598129272
1751389817567550000,10.897550048828125,-1.143988847732544,2.1833157539367676,-0.30330634117126465
1751389817577596000,10.907595947265625,-1.275862693786621,1.326751470565796,-0.023721573874354362
1751389817587641900,10.917641845703125,-1.3816876411437988,0.5056658387184143,0.28168681263923645
1751389817597687000,10.92768701171875,-1.3864110708236694,0.24248240888118744,0.625156819820404
1751389817607733000,10.93773291015625,-1.2175620794296265,0.7779631614685059,1.0175094604492188
1751389817617779000,10.947779052734376,-0.8669678568840027,1.2792904376983643,1.3910335302352905
1751389817627825000,10.957824951171874,-0.3796623647212982,1.2029399871826172,1.6643006801605225
1751389817637870000,10.9678701171875,0.19905051589012146,0.833095908164978,1.8418376445770264
1751389817647916000,10.977916015625,0.8186432123184204,0.6666858792304993,1.9965859651565552
1751389817657962000,10.9879619140625,1.3912403583526611,1.1256507635116577,2.208662271499634
1751389817668007000,10.9980068359375,1.8336215019226074,2.1133265495300293,2.192603826522827
1751389817678052900,11.008052978515625,2.295924663543701,2.346250295639038,1.9093011617660522
1751389817688098800,11.018098876953125,2.9181175231933594,1.9852499961853027,1.4868862628936768
1751389817698144000,11.02814404296875,3.630398988723755,1.3680589199066162,1.0760449171066284
1751389817708190000,11.03818994140625,4.264760971069336,0.55179762840271,0.873900830745697
1751389817718236000,11.04823583984375,4.789875507354736,-0.3372185230255127,0.8776040077209473
1751389817728281000,11.058281005859374,5.2121195793151855,-0.9387248754501343,0.9970694184303284
1751389817738327000,11.0683271484375,5.536319732666016,-0.8512919545173645,1.1442772150039673
1751389817748373000,11.078373046875,5.743727684020996,-0.15769748389720917,1.2359176874160767
1751389817758418200,11.088418212890625,5.7693071365356445,0.5900848507881165,1.2143816947937012
1751389817768464100,11.098464111328125,5.57218074798584,1.0511674880981445,1.1552870273590088
1751389817778510000,11.108510009765626,5.152127742767334,1.2567569017410278,1.1338131427764893
1751389817788555000,11.118554931640626,4.550238132476807,1.5179847478866577,1.1668213605880737
1751389817798601000,11.12860107421875,3.834284782409668,1.6905783414840698,0.9749233722686768
1751389817808647000,11.13864697265625,3.1143815517425537,1.5066429376602173,0.5671417117118835
1751389817818692000,11.148692138671874,2.499885320663452,1.0405277013778687,0.05132018029689789
1751389817828738000,11.158738037109375,2.0090153217315674,0.3342094123363495,-0.5057199001312256
1751389817838784000,11.168783935546875,1.5662031173706055,-0.5867276787757874,-0.9894141554832458
1751389817848830000,11.178829833984375,1.1520395278930664,-1.607537031173706,-1.2569280862808228
1751389817858875100,11.188875244140625,0.8108188509941101,-2.6783945560455322,-1.3812413215637207
1751389817868921000,11.198921142578126,0.5644577741622925,-3.484753370285034,-1.3956152200698853
1751389817878967000,11.208967041015624,0.3759526014328003,-3.93315052986145,-1.3673657178878784
1751389817889012200,11.21901220703125,0.2258395254611969,-4.1230292320251465,-1.3084717988967896
1751389817899058400,11.229058349609375,0.081162229180336,-4.135685920715332,-1.214838981628418
1751389817909104400,11.2391044921875,-0.07933902740478516,-3.9549756050109863,-1.1232521533966064
1751389817919149300,11.2491494140625,-0.2483072727918625,-3.6548736095428467,-1.044908046722412
1751389817929195500,11.259195556640625,-0.41476842761039734,-3.382352590560913,-0.9686539769172668
1751389817939241500,11.269241455078125,-0.5726568698883057,-3.1489357948303223,-0.8911206126213074
1751389817949286400,11.279286376953126,-0.726036012172699,-2.9333338737487793,-0.813591718673706
1751389817959332400,11.289332275390626,-0.8627904057502747,-2.679415702819824,-0.7167192101478577
1751389817969378600,11.299378662109374,-0.982902467250824,-2.4311020374298096,-0.624791145324707
1751389817979423200,11.30942333984375,-1.0522758960723877,-2.2329580783843994,-0.5423972010612488
1751389817989469200,11.31946923828125,-1.0729260444641113,-2.0696346759796143,-0.46278655529022217
1751389817999515400,11.329515380859375,-1.0637503862380981,-1.9325473308563232,-0.3863556981086731
1751389818009560300,11.339560302734375,-1.0118483304977417,-1.788962483406067,-0.3587919771671295
1751389818019606300,11.349606201171875,-0.9043647646903992,-1.545915961265564,-0.4268975257873535
1751389818029652500,11.359652587890626,-0.7840650081634521,-1.1042203903198242,-0.6738404631614685
1751389818039697400,11.369697509765626,-0.6826001405715942,-0.18685802817344666,-1.1495805978775024
1751389818049743400,11.379743408203124,-0.6862540245056152,0.6474408507347107,-1.0154188871383667
1751389818059789300,11.389789306640624,-0.308651328086853,1.612684965133667,0.010816428810358047
1751389818069834500,11.39983447265625,0.26553019881248474,2.706360101699829,0.5943642854690552
1751389818079880400,11.40988037109375,0.8302364945411682,3.1055917739868164,0.6923028230667114
1751389818089926400,11.419926513671875,1.1217620372772217,2.8035645484924316,0.4154965281486511
1751389818099972600,11.42997265625,0.8064813613891602,2.034858226776123,0.04857392609119415
1751389818110017300,11.440017333984375,0.1648685783147812,1.512503981590271,-0.2492617517709732
1751389818120063200,11.450063232421876,-0.6742798686027527,1.4274886846542358,-0.554489016532898
1751389818130109200,11.460109130859376,-1.4195657968521118,1.545662760734558,-0.7959765195846558
1751389818140154400,11.470154296875,-1.67659330368042,1.6648956537246704,-0.9846699833869934
1751389818150200300,11.480200439453125,-1.5012997388839722,1.691175937652588,-1.1721032857894897
1751389818160246300,11.490246337890625,-1.148943305015564,1.2703454494476318,-1.179426670074463
1751389818170291500,11.50029150390625,-0.845587968826294,0.4965072274208069,-0.8879591822624207
1751389818180337400,11.51033740234375,-0.6071367859840393,-0.2661163806915283,-0.480959951877594
1751389818190383400,11.52038330078125,-0.2503049075603485,0.11220456659793854,0.09066572040319443
1751389818200428500,11.530428466796875,0.4269412159919739,1.8768545389175415,0.716543436050415
1751389818210474500,11.540474609375,0.948990523815155,2.267350435256958,0.95188969373703
1751389818220520400,11.5505205078125,1.1981319189071655,1.6210722923278809,0.7998628616333008
1751389818230565400,11.5605654296875,1.1459989547729492,0.8436505198478699,0.3893008828163147
1751389818240611300,11.570611328125,0.935151994228363,0.08988062292337418,-0.11266902089118958
1751389818250657300,11.5806572265625,0.5970413088798523,-0.4810124337673187,-0.48000362515449524
1751389818260702500,11.590702392578125,0.11608052998781204,-0.9663594365119934,-0.6589944362640381
1751389818270748400,11.60074853515625,-0.4625498056411743,-1.383782982826233,-0.7931210398674011
1751389818280794400,11.61079443359375,-1.0555753707885742,-1.6298034191131592,-0.9014382362365723
1751389818290839600,11.620839599609376,-1.5478949546813965,-1.7110146284103394,-0.9006730914115906
1751389818300885500,11.630885498046876,-1.8782804012298584,-1.7887533903121948,-0.8061175346374512
1751389818310931500,11.640931396484374,-2.0410683155059814,-1.8917481899261475,-0.6894428730010986
1751389818320976400,11.650976318359374,-2.070171594619751,-1.9861620664596558,-0.5849896669387817
1751389818331022600,11.661022705078125,-1.972540020942688,-2.065208673477173,-0.5065838098526001
1751389818341068300,11.671068359375,-1.7894431352615356,-2.092515468597412,-0.43014445900917053
1751389818351113200,11.68111328125,-1.5835808515548706,-2.087829113006592,-0.3257746398448944
1751389818361159400,11.691159423828125,-1.3884973526000977,-2.021535873413086,-0.19352605938911438
1751389818371205400,11.701205322265626,-1.2272319793701172,-1.8381792306900024,-0.07991693913936615
1751389818381251300,11.711251220703126,-1.1039791107177734,-1.5530458688735962,-0.0312519297003746
1751389818391296500,11.721296630859374,-1.0175021886825562,-1.2113401889801025,-0.044317930936813354
1751389818401342500,11.731342529296874,-0.9676638245582581,-0.7521459460258484,-0.13807184994220734
1751389818411388400,11.741388427734375,-0.9901701807975769,0.215318962931633,-0.5032732486724854
1751389818421433300,11.751433349609375,-1.045830488204956,1.4189244508743286,-0.9606754183769226
1751389818431479600,11.7614794921875,-1.0722904205322266,2.257514476776123,-1.2343794107437134
1751389818441525500,11.771525390625,-1.0641701221466064,2.5700907707214355,-1.2725603580474854
1751389818451570200,11.781570068359375,-1.0569742918014526,2.5772318840026855,-1.2077813148498535
1751389818461616400,11.791616455078126,-1.0762600898742676,2.4866485595703125,-1.129195213317871
1751389818471662300,11.801662353515624,-1.128974199295044,2.332688331604004,-1.040285348892212
1751389818481707300,11.811707275390624,-1.1920950412750244,2.1208391189575195,-0.9493988156318665
1751389818491753200,11.821753173828125,-1.2544453144073486,1.8547343015670776,-0.8567016124725342
1751389818501799400,11.83179931640625,-1.2974729537963867,1.582353949546814,-0.7738919854164124
1751389818511844400,11.84184423828125,-1.3170859813690186,1.3433948755264282,-0.6955612301826477
1751389818521890300,11.851890380859375,-1.3195265531539917,1.1777236461639404,-0.6159377694129944
1751389818531936500,11.8619365234375,-1.3326990604400635,1.0719801187515259,-0.5347539782524109
1751389818541981400,11.8719814453125,-1.361189603805542,1.0107258558273315,-0.4628331661224365
1751389818552027400,11.88202734375,-1.378591775894165,0.9737395644187927,-0.4157881438732147
1751389818562073300,11.8920732421875,-1.3755847215652466,0.9498273134231567,-0.4120357632637024
1751389818572118300,11.9021181640625,-1.3410704135894775,0.9426993727684021,-0.4506385326385498
1751389818582164200,11.912164306640625,-1.2511391639709473,0.9744844436645508,-0.5202591419219971
1751389818592210200,11.922210205078125,-1.110816478729248,1.0659781694412231,-0.6066797971725464
1751389818602255400,11.93225537109375,-0.9708998203277588,1.3119224309921265,-0.7446099519729614
1751389818612301300,11.94230126953125,-0.8424971103668213,2.018136739730835,-0.9302557706832886
1751389818622347300,11.95234716796875,-0.7430232763290405,2.7205145359039307,-0.9942770600318909
1751389818632393500,11.9623935546875,-0.7033807635307312,3.015169382095337,-0.8931983709335327
1751389818642438400,11.9724384765625,-0.734777569770813,2.9129953384399414,-0.6770879030227661
1751389818652484400,11.982484375,-0.8109349608421326,2.5840251445770264,-0.35784947872161865
1751389818662530300,11.9925302734375,-0.8875197172164917,2.3425867557525635,0.10307098925113678
1751389818672575500,12.002575439453125,-0.8649536967277527,2.3664166927337646,0.7379278540611267
1751389818682621400,12.012621337890625,-0.6768943071365356,2.165520429611206,1.4360730648040771
1751389818692667400,12.02266748046875,-0.3201311230659485,1.3470427989959717,1.913976788520813
1751389818702712300,12.03271240234375,0.16294817626476288,0.21841968595981598,2.115699529647827
1751389818712758300,12.04275830078125,0.7250176668167114,-0.5093921422958374,2.2032225131988525
1751389818722804200,12.05280419921875,1.1964389085769653,0.6833711266517639,2.016310453414917
1751389818732849400,12.062849365234374,1.5736157894134521,1.6878252029418945,1.600286602973938
1751389818742895400,12.072895263671874,1.9820016622543335,1.3442363739013672,1.288344383239746
1751389818752941300,12.08294140625,2.453569173812866,0.19154733419418335,1.0946688652038574
1751389818762986500,12.092986572265625,2.981782913208008,-1.1094787120819092,0.9946709275245667
1751389818773032400,12.103032470703125,3.4228546619415283,-2.2013161182403564,1.0081108808517456
1751389818783078400,12.113078369140625,3.7820804119110107,-3.025686502456665,1.0756851434707642
1751389818793123600,12.12312353515625,4.04942512512207,-3.5707216262817383,1.1565759181976318
1751389818803169500,12.13316943359375,4.267918586730957,-3.593663454055786,1.2351285219192505
1751389818813215500,12.143215576171874,4.502386093139648,-2.6704277992248535,1.258915901184082
1751389818823260400,12.153260498046874,4.706933498382568,-1.1766746044158936,1.255162239074707
1751389818833306400,12.163306396484375,4.730992794036865,0.0078571243211627,1.2109547853469849
1751389818843352300,12.173352294921875,4.556334018707275,0.6509889364242554,1.1712819337844849
1751389818853397200,12.183397216796875,4.220263481140137,0.9716092944145203,1.1806954145431519
1751389818863443500,12.193443359375,3.796060800552368,1.2446362972259521,1.2471426725387573
1751389818873489400,12.203489501953126,3.361759901046753,1.5948182344436646,1.2140458822250366
1751389818883534300,12.213534423828126,2.928837537765503,1.8153094053268433,0.98455810546875
1751389818893580800,12.223580810546874,2.4951696395874023,1.9944088459014893,0.5696216821670532
1751389818903627000,12.233626953125,2.1225602626800537,1.914116621017456,-0.04668175056576729
1751389818913672000,12.243671875,1.786653757095337,1.559651255607605,-0.7413457632064819
1751389818923718000,12.2537177734375,1.4503806829452515,0.7896871566772461,-1.3075056076049805
1751389818933764000,12.26376416015625,1.1422876119613647,-0.8969950079917908,-1.4417613744735718
1751389818943810000,12.27381005859375,0.9018049240112305,-2.622856616973877,-1.342064380645752
1751389818953854700,12.283854736328125,0.7257465720176697,-3.805377244949341,-1.2191994190216064
1751389818963901000,12.29390087890625,0.57210773229599,-4.36651611328125,-1.1248222589492798
1751389818973947000,12.30394677734375,0.38924869894981384,-4.438533782958984,-1.0657241344451904
1751389818983991800,12.31399169921875,0.1787889152765274,-4.138833999633789,-1.0338619947433472
1751389818994037800,12.324037841796875,-0.0490916445851326,-3.6608123779296875,-1.0145705938339233
1751389819004084000,12.334083984375,-0.2710866332054138,-3.166843891143799,-0.9659266471862793
1751389819014129000,12.34412890625,-0.4584474563598633,-2.7468857765197754,-0.8670123219490051
1751389819024174800,12.3541748046875,-0.617249071598053,-2.3898754119873047,-0.7128714919090271
1751389819034221000,12.364220947265625,-0.741268515586853,-2.1073379516601562,-0.53229159116745
1751389819044266000,12.374265869140626,-0.8003126382827759,-1.8709529638290405,-0.34610921144485474
1751389819054312000,12.38431201171875,-0.7812233567237854,-1.677864670753479,-0.16299158334732056
1751389819064358000,12.39435791015625,-0.6999948620796204,-1.5347880125045776,-0.006707437336444855
1751389819074402800,12.40440283203125,-0.5895040035247803,-1.4116671085357666,0.14010438323020935
1751389819084448800,12.41444873046875,-0.5006995797157288,-1.2767255306243896,0.24990756809711456
1751389819094494700,12.42449462890625,-0.4630337059497833,-1.1184847354888916,0.255388081073761
1751389819104540000,12.434539794921875,-0.4429513216018677,-0.8845012784004211,0.10651552677154541
1751389819114585900,12.4445859375,-0.4326150715351105,-0.48262497782707214,-0.17764243483543396
1751389819124631800,12.4546318359375,-0.45681360363960266,0.1443111002445221,-0.5450670719146729
1751389819134677000,12.464677001953126,-0.5811840295791626,0.9074755907058716,-0.8299158215522766
1751389819144723000,12.474722900390624,-0.7522953152656555,1.572044849395752,-0.7548977732658386
1751389819154769000,12.484768798828124,-0.809116780757904,1.897955298423767,-0.23161432147026062
1751389819164814000,12.49481396484375,-0.7954598665237427,2.0895144939422607,0.368358850479126
1751389819174860000,12.504860107421875,-0.8525854349136353,2.157114028930664,0.7820013165473938
1751389819184905700,12.51490576171875,-1.127042293548584,2.134974956512451,0.8613024950027466
1751389819194951000,12.524950927734375,-1.5484907627105713,1.9527181386947632,0.6190810799598694
1751389819204996900,12.534996826171875,-1.907226800918579,1.554640531539917,0.1313239336013794
1751389819215042800,12.545042724609376,-1.9737358093261719,1.0371893644332886,-0.4492289423942566
1751389819225088800,12.5550888671875,-1.672558307647705,0.5919498801231384,-0.9168651103973389
1751389819235134000,12.565134033203124,-1.1793403625488281,0.4452957212924957,-1.2095108032226562
